[{"_id":{"$oid":"619d2c924e895c3605c99fcc"},"answer":"the positively sloped lines indicate when shifts start. Find 12 pm and follow the positive sloped line up to the event point(s).","block":"triangular_testing","condition":"211","experiment":"2YP3","graph":"triangular","internal_node_id":"0.0-9.0-0.0","q":16,"rt":66538,"session":"a16308330","subject":"WLO69","time_elapsed":741140,"trial_index":22,"trial_type":"html","url":"../views/src/external/stimulus.html"},{"_id":{"$oid":"619d2c924e895c3605c99fe5"},"answer":"there are two lines starting at certain times, the one shooting to the right will meet some lines shooting to the left, when there is an event at their intersection, that event starts at 12pm","block":"triangular_testing","condition":"221","experiment":"2YP3","graph":"triangular","internal_node_id":"0.0-9.0-0.0","q":16,"rt":266019,"session":"a16128348","subject":"YRELO","time_elapsed":677849,"trial_index":22,"trial_type":"html","url":"../views/src/external/stimulus.html"},{"_id":{"$oid":"619d2c924e895c3605c99ffe"},"answer":"take 12 pm spot on x-axis as the left bottom mark as a triangle which has the shift name as the top mark.","block":"triangular_testing","condition":"221","experiment":"2YP3","graph":"triangular","internal_node_id":"0.0-9.0-0.0","q":16,"rt":75896,"session":"a16348482","subject":"LZSME","time_elapsed":2055459,"trial_index":22,"trial_type":"html","url":"../views/src/external/stimulus.html"},{"_id":{"$oid":"619d2c924e895c3605c9a017"},"answer":"To determine which events start at 12 pm, go to the x axis, and follow the lines that lean toward the right. If an event (or shift) is on that same line, then it must start at 12 pm.","block":"triangular_testing","condition":"121\n121","experiment":"2YP3","graph":"triangular","internal_node_id":"0.0-9.0-0.0","q":16,"rt":114012,"session":"a1677674","subject":"63VL0","time_elapsed":885253,"trial_index":22,"trial_type":"html","url":"../views/src/external/stimulus.html"},{"_id":{"$oid":"619d2c924e895c3605c9a049"},"answer":"Look at 12pm on the time axis, and look at the line pointing diagonally to the right from 12. You will find M and L along this line, therefore they begin at 12. ","block":"triangular_testing","condition":"211","experiment":"2YP3","graph":"triangular","internal_node_id":"0.0-9.0-0.0","q":16,"rt":46054,"session":"a15769204","subject":"47SB1","time_elapsed":393624,"trial_index":22,"trial_type":"html","url":"../views/src/external/stimulus.html"},{"_id":{"$oid":"619d2c924e895c3605c9a094"},"answer":"find 12 on x axis follow diagonal line to the right","block":"triangular_testing","condition":"321","experiment":"2YP3","graph":"triangular","internal_node_id":"0.0-9.0-0.0","q":16,"rt":24765,"session":"a15458549","subject":"DGVGP","time_elapsed":498170,"trial_index":22,"trial_type":"html","url":"../views/src/external/stimulus.html"},{"_id":{"$oid":"619d2c924e895c3605c9a0ad"},"answer":"I begin with looking at the Horizontal axis (Start & end time) and go up from there ","block":"triangular_testing","condition":"311","experiment":"2YP3","graph":"triangular","internal_node_id":"0.0-9.0-0.0","q":16,"rt":51771,"session":"a13190800","subject":"TE7JZ","time_elapsed":2841539,"trial_index":22,"trial_type":"html","url":"../views/src/external/stimulus.html"},{"_id":{"$oid":"619d2c924e895c3605c9a0c6"},"answer":"I find 12pm on the X axis, then I take the diagonal on the right and follow it until I find dots M and L.","block":"triangular_testing","condition":"111","experiment":"2YP3","graph":"triangular","internal_node_id":"0.0-9.0-0.0","q":16,"rt":83496,"session":"hollanlab","subject":"5N035","time_elapsed":19949428,"trial_index":22,"trial_type":"html","url":"../views/src/external/stimulus.html"},{"_id":{"$oid":"619d2c924e895c3605c9a0df"},"answer":"go to 12 pm on the x axis and then move up the line towards the right till you see dots of the events","block":"triangular_testing","condition":"221","experiment":"2YP3","graph":"triangular","internal_node_id":"0.0-9.0-0.0","q":16,"rt":27514,"session":"a15435687","subject":"1H0SY","time_elapsed":472809,"trial_index":22,"trial_type":"html","url":"../views/src/external/stimulus.html"},{"_id":{"$oid":"619d2c924e895c3605c9a0f8"},"answer":"Start on x axis, move right until 12pm, then go up on the line segment that starts at 12pm and goes up to the right (towards M), continue until end of line. M & L both start at 12pm because they both lay on the line up and right starting at 12pm.","block":"triangular_testing","condition":"221","experiment":"2YP3","graph":"triangular","internal_node_id":"0.0-9.0-0.0","q":16,"rt":66393,"session":"a16031916","subject":"UDSVX","time_elapsed":400576,"trial_index":22,"trial_type":"html","url":"../views/src/external/stimulus.html"},{"_id":{"$oid":"619d2c924e895c3605c9a111"},"answer":"be","block":"triangular_testing","condition":"321","experiment":"2YP3","graph":"triangular","internal_node_id":"0.0-9.0-0.0","q":16,"rt":12946,"session":"a15839275","subject":"9PELV","time_elapsed":3607558,"trial_index":22,"trial_type":"html","url":"../views/src/external/stimulus.html"},{"_id":{"$oid":"619d2c924e895c3605c9a12a"},"answer":"On the X axis of the graph, the start of a shift is marked by the left side of a triangle formed by the 2 lines that emerge below each shift's dot on the graph","block":"triangular_testing","condition":"121","experiment":"2YP3","graph":"triangular","internal_node_id":"0.0-9.0-0.0","q":16,"rt":81749,"session":"a15673149","subject":"1SY41","time_elapsed":1245146,"trial_index":22,"trial_type":"html","url":"../views/src/external/stimulus.html"},{"_id":{"$oid":"619d2c924e895c3605c9a143"},"answer":"You look at the x coordinate of the graph, start & and time, look for 12pm once you have located 12pm you move diagonally to the right moving upwards and search for the letters on that line when moving diagonally","block":"triangular_testing","condition":"211","experiment":"2YP3","graph":"triangular","internal_node_id":"0.0-9.0-0.0","q":16,"rt":123608,"session":"a15960387","subject":"SQ3V5","time_elapsed":1270077,"trial_index":22,"trial_type":"html","url":"../views/src/external/stimulus.html"},{"_id":{"$oid":"619d2c924e895c3605c9a15c"},"answer":"1) Find 12pm on the horizontal axis 2) look at the diagonal line that starts from the 12pm point on the horizontal axis and that goes upwards to the right 3) the lines that lay on that diagonal line are the events that start at 12pm - in this case it's M and L","block":"triangular_testing","condition":"321","experiment":"2YP3","graph":"triangular","internal_node_id":"0.0-9.0-0.0","q":16,"rt":124831,"session":"a15378348","subject":"ZV99C","time_elapsed":815002,"trial_index":22,"trial_type":"html","url":"../views/src/external/stimulus.html"},{"_id":{"$oid":"619d2c924e895c3605c9a175"},"answer":"you go to 12 pm and then go diagonally right the whole time ","block":"triangular_testing","condition":"321","experiment":"2YP3","graph":"triangular","internal_node_id":"0.0-9.0-0.0","q":16,"rt":34748,"session":"a15543958","subject":"FW9D5","time_elapsed":487740,"trial_index":22,"trial_type":"html","url":"../views/src/external/stimulus.html"},{"_id":{"$oid":"619d2c924e895c3605c9a18e"},"answer":"1. FIND 12 PM; 2. FOLLOW THE RIGHT, DIAGONAL LINE UP; 3. THESE SHIFTS START AT 12: M, L ","block":"triangular_testing","condition":"221\n221","experiment":"2YP3","graph":"triangular","internal_node_id":"0.0-9.0-0.0","q":16,"rt":45018,"session":"16132934","subject":"Q20EE","time_elapsed":439075,"trial_index":22,"trial_type":"html","url":"../views/src/external/stimulus.html"},{"_id":{"$oid":"619d2c924e895c3605c9a1a7"},"answer":"start at 12pm on the x axis, take the northeast line and identify all the points along that line","block":"triangular_testing","condition":"321","experiment":"2YP3","graph":"triangular","internal_node_id":"0.0-9.0-0.0","q":16,"rt":40771,"session":"a15664520","subject":"07MCH","time_elapsed":414317,"trial_index":22,"trial_type":"html","url":"../views/src/external/stimulus.html"},{"_id":{"$oid":"619d2c924e895c3605c9a1c0"},"answer":"YoYou look at where the 12 is on the x axis and trace the line up that is pointed more right","block":"triangular_testing","condition":"221","experiment":"2YP3","graph":"triangular","internal_node_id":"0.0-9.0-0.0","q":16,"rt":72512,"session":"a15503974","subject":"0C5DM","time_elapsed":648891,"trial_index":22,"trial_type":"html","url":"../views/src/external/stimulus.html"},{"_id":{"$oid":"619d2c924e895c3605c9a1d9"},"answer":"Follow the line to the left of 12 pm and see if there are any dots on it.","block":"triangular_testing","condition":"321","experiment":"2YP3","graph":"triangular","internal_node_id":"0.0-9.0-0.0","q":16,"rt":73076,"session":"a15928667","subject":"CPRP9","time_elapsed":881021,"trial_index":22,"trial_type":"html","url":"../views/src/external/stimulus.html"},{"_id":{"$oid":"619d2c924e895c3605c9a1f2"},"answer":"Find 12 pm on the x axis and then follow the diagonal line upwards and rightwards\n","block":"triangular_testing","condition":"321","experiment":"2YP3","graph":"triangular","internal_node_id":"0.0-9.0-0.0","q":16,"rt":41533,"session":"a16294943","subject":"E0G9F","time_elapsed":707717,"trial_index":22,"trial_type":"html","url":"../views/src/external/stimulus.html"},{"_id":{"$oid":"619d2c924e895c3605c9a20b"},"answer":"I lI look at the x-axis (time of day), locate where 12 PM is and follow the diagonal line that slants to the right, locating any points along that line.","block":"triangular_testing","condition":"211","experiment":"2YP3","graph":"triangular","internal_node_id":"0.0-9.0-0.0","q":16,"rt":71025,"session":"a16622527","subject":"JPZWL","time_elapsed":501678,"trial_index":22,"trial_type":"html","url":"../views/src/external/stimulus.html"},{"_id":{"$oid":"619d2c924e895c3605c9a23d"},"answer":"go to the 12 pm mark on horizontal axis, follow diagonal up towards right, any points on that line segment would be the shifts starting at 12pm","block":"triangular_testing","condition":"221\n221","experiment":"2YP3","graph":"triangular","internal_node_id":"0.0-9.0-0.0","q":16,"rt":78860,"session":"a15644634","subject":"SGEJ0","time_elapsed":685233,"trial_index":22,"trial_type":"html","url":"../views/src/external/stimulus.html"},{"_id":{"$oid":"619d2c924e895c3605c9a256"},"answer":"whichever line veering right starting at the 12pm point is the starting line, so anything plotted along that right leaning line starts at 12pm. ","block":"triangular_testing","condition":"221","experiment":"2YP3","graph":"triangular","internal_node_id":"0.0-9.0-0.0","q":16,"rt":75846,"session":"a15564584","subject":"GXWDP","time_elapsed":967726,"trial_index":22,"trial_type":"html","url":"../views/src/external/stimulus.html"},{"_id":{"$oid":"619d2c924e895c3605c9a26f"},"answer":"look at 12pm on x axis and follow line going up and to the right. Everything on that line starts at 12pm","block":"triangular_testing","condition":"111","experiment":"2YP3","graph":"triangular","internal_node_id":"0.0-9.0-0.0","q":16,"rt":49342,"session":"a16143137","subject":"LNVKO","time_elapsed":511343,"trial_index":22,"trial_type":"html","url":"../views/src/external/stimulus.html"},{"_id":{"$oid":"619d2c924e895c3605c9a288"},"answer":"First locate 12pm on the x-axis the follow the diagonal to the right of it. Any event starting at that time will be along that line.","block":"triangular_testing","condition":"311","experiment":"2YP3","graph":"triangular","internal_node_id":"0.0-9.0-0.0","q":16,"rt":68105,"session":"a15815721","subject":"7K6V3","time_elapsed":582810,"trial_index":22,"trial_type":"html","url":"../views/src/external/stimulus.html"},{"_id":{"$oid":"619d2c924e895c3605c9a2a1"},"answer":"Go to 12pm on the x-axis and go upward to the right and see what points are on that diagonal line","block":"triangular_testing","condition":"221","experiment":"2YP3","graph":"triangular","internal_node_id":"0.0-9.0-0.0","q":16,"rt":75844,"session":"a15583685","subject":"KFXNR","time_elapsed":987587,"trial_index":22,"trial_type":"html","url":"../views/src/external/stimulus.html"},{"_id":{"$oid":"619d2c924e895c3605c9a2ba"},"answer":"Follow the line up and right that, 12pm to see what shifts are there","block":"triangular_testing","condition":"211","experiment":"2YP3","graph":"triangular","internal_node_id":"0.0-9.0-0.0","q":16,"rt":136888,"session":"a15505662","subject":"LCFZM","time_elapsed":938899,"trial_index":22,"trial_type":"html","url":"../views/src/external/stimulus.html"},{"_id":{"$oid":"619d2c924e895c3605c9a2d3"},"answer":"The diagonal line from 12pm to the 8 hour duration line","block":"triangular_testing","condition":"221","experiment":"2YP3","graph":"triangular","internal_node_id":"0.0-9.0-0.0","q":16,"rt":44328,"session":"a15578823","subject":"U794E","time_elapsed":618851,"trial_index":22,"trial_type":"html","url":"../views/src/external/stimulus.html"},{"_id":{"$oid":"619d2c924e895c3605c9a2ec"},"answer":"follow the diagonal line","block":"triangular_testing","condition":"221","experiment":"2YP3","graph":"triangular","internal_node_id":"0.0-9.0-0.0","q":16,"rt":15579,"session":"a16176734","subject":"RRQXQ","time_elapsed":442355,"trial_index":22,"trial_type":"html","url":"../views/src/external/stimulus.html"},{"_id":{"$oid":"619d2c924e895c3605c9a305"},"answer":"Using the right most diagonal line that starts at 12pm.","block":"triangular_testing","condition":"221","experiment":"2YP3","graph":"triangular","internal_node_id":"0.0-9.0-0.0","q":16,"rt":34614,"session":"a15588293","subject":"B0QF0","time_elapsed":425648,"trial_index":22,"trial_type":"html","url":"../views/src/external/stimulus.html"},{"_id":{"$oid":"619d2c924e895c3605c9a31e"},"answer":"gp to 12pm on the bottom of the graph and then trace up until you land on a dot","block":"triangular_testing","condition":"311","experiment":"2YP3","graph":"triangular","internal_node_id":"0.0-9.0-0.0","q":16,"rt":40051,"session":"a15504468","subject":"US1HX","time_elapsed":862312,"trial_index":22,"trial_type":"html","url":"../views/src/external/stimulus.html"},{"_id":{"$oid":"619d2c924e895c3605c9a337"},"answer":"Locate 12 PM on the X-axis, then follow the diagonal line going upward-left. All points along that line start at 12 PM.","block":"triangular_testing","condition":"211","experiment":"2YP3","graph":"triangular","internal_node_id":"0.0-9.0-0.0","q":16,"rt":98391,"session":"a16623408","subject":"P1STY","time_elapsed":740649,"trial_index":22,"trial_type":"html","url":"../views/src/external/stimulus.html"},{"_id":{"$oid":"619d2c924e895c3605c9a350"},"answer":"Find 12PM on the bottom axis and follow the diagonal line up and to the right, anything on that line starts at 12PM.","block":"triangular_testing","condition":"221","experiment":"2YP3","graph":"triangular","internal_node_id":"0.0-9.0-0.0","q":16,"rt":42677,"session":"a15462161","subject":"XZ05Q","time_elapsed":618089,"trial_index":22,"trial_type":"html","url":"../views/src/external/stimulus.html"},{"_id":{"$oid":"619d2c924e895c3605c99fbd"},"answer":"F","axis":"Orthogonal-XInside-YFull","clicks":3,"condition":"211","correct":1,"explicit":2,"impasse":1,"orth_correct":0,"q":1,"question":"starttime","rt":48093,"session":"a16308330","subject":"WLO69"},{"_id":{"$oid":"619d2c924e895c3605c99fbe"},"answer":"K","axis":"Orthogonal-XInside-YFull","clicks":1.5,"condition":"211","correct":1,"explicit":2,"impasse":1,"orth_correct":0,"q":2,"question":"starts","rt":15283,"session":"a16308330","subject":"WLO69"},{"_id":{"$oid":"619d2c924e895c3605c99fbf"},"answer":"F","axis":"Orthogonal-XInside-YFull","clicks":1,"condition":"211","correct":1,"explicit":2,"impasse":1,"orth_correct":0,"q":3,"question":"meets","rt":19684,"session":"a16308330","subject":"WLO69"},{"_id":{"$oid":"619d2c924e895c3605c99fc0"},"answer":"H","axis":"Orthogonal-XInside-YFull","clicks":1,"condition":"211","correct":1,"explicit":2,"impasse":1,"orth_correct":0,"q":4,"question":"endtime","rt":9861,"session":"a16308330","subject":"WLO69"},{"_id":{"$oid":"619d2c924e895c3605c99fc1"},"answer":"O","axis":"Orthogonal-XInside-YFull","clicks":1,"condition":"211","correct":1,"explicit":2,"impasse":1,"orth_correct":0,"q":5,"question":"midpoint","rt":28342,"session":"a16308330","subject":"WLO69"},{"_id":{"$oid":"619d2c924e895c3605c99fc2"},"answer":"EG","axis":"Orthogonal-XInside-YFull","clicks":2,"condition":"211","correct":1,"explicit":2,"impasse":1,"orth_correct":1,"q":6,"question":"duration","rt":11082,"session":"a16308330","subject":"WLO69"},{"_id":{"$oid":"619d2c924e895c3605c99fc3"},"answer":"XO","axis":"Orthogonal-XInside-YFull","clicks":2,"condition":"211","correct":1,"explicit":2,"impasse":1,"orth_correct":0,"q":7,"question":"duration+starts","rt":32911,"session":"a16308330","subject":"WLO69"},{"_id":{"$oid":"619d2c924e895c3605c99fc4"},"answer":"AGK","axis":"Orthogonal-XInside-YFull","clicks":3,"condition":"211","correct":0,"explicit":2,"impasse":1,"orth_correct":0,"q":8,"question":"duration+contained","rt":52836,"session":"a16308330","subject":"WLO69"},{"_id":{"$oid":"619d2c924e895c3605c99fc5"},"answer":"I","axis":"Orthogonal-XInside-YFull","clicks":1,"condition":"211","correct":1,"explicit":2,"impasse":1,"orth_correct":1,"q":9,"question":"starttime+before+endtime+during","rt":38247,"session":"a16308330","subject":"WLO69"},{"_id":{"$oid":"619d2c924e895c3605c99fc6"},"answer":"E","axis":"Orthogonal-XInside-YFull","clicks":1,"condition":"211","correct":1,"explicit":2,"impasse":1,"orth_correct":0,"q":10,"question":"ends","rt":9870,"session":"a16308330","subject":"WLO69"},{"_id":{"$oid":"619d2c924e895c3605c99fc7"},"answer":"ML","axis":"Orthogonal-XInside-YFull","clicks":2,"condition":"211","correct":1,"explicit":2,"impasse":1,"orth_correct":0,"q":11,"question":"starttime","rt":11067,"session":"a16308330","subject":"WLO69"},{"_id":{"$oid":"619d2c924e895c3605c99fc8"},"answer":"G","axis":"Orthogonal-XInside-YFull","clicks":1,"condition":"211","correct":1,"explicit":2,"impasse":1,"orth_correct":0,"q":12,"question":"starts","rt":13115,"session":"a16308330","subject":"WLO69"},{"_id":{"$oid":"619d2c924e895c3605c99fc9"},"answer":"EF","axis":"Orthogonal-XInside-YFull","clicks":2.5,"condition":"211","correct":1,"explicit":2,"impasse":1,"orth_correct":0,"q":13,"question":"meets","rt":18327,"session":"a16308330","subject":"WLO69"},{"_id":{"$oid":"619d2c924e895c3605c99fca"},"answer":"X","axis":"Orthogonal-XInside-YFull","clicks":1,"condition":"211","correct":1,"explicit":2,"impasse":1,"orth_correct":0,"q":14,"question":"endtime","rt":8748,"session":"a16308330","subject":"WLO69"},{"_id":{"$oid":"619d2c924e895c3605c99fcb"},"answer":"KX","axis":"Orthogonal-XInside-YFull","clicks":2.5,"condition":"211","correct":1,"explicit":2,"impasse":1,"orth_correct":0,"q":15,"question":"midpoint","rt":13899,"session":"a16308330","subject":"WLO69"},{"_id":{"$oid":"619d2c924e895c3605c99fd6"},"answer":"F","axis":"Orthogonal-XInside-YFull","clicks":1,"condition":"221","correct":1,"explicit":2,"impasse":2,"orth_correct":0,"q":1,"question":"starttime","rt":15027,"session":"a16128348","subject":"YRELO"},{"_id":{"$oid":"619d2c924e895c3605c99fd7"},"answer":"K","axis":"Orthogonal-XInside-YFull","clicks":1,"condition":"221","correct":1,"explicit":2,"impasse":2,"orth_correct":0,"q":2,"question":"starts","rt":10937,"session":"a16128348","subject":"YRELO"},{"_id":{"$oid":"619d2c924e895c3605c99fd8"},"answer":"F","axis":"Orthogonal-XInside-YFull","clicks":1,"condition":"221","correct":1,"explicit":2,"impasse":2,"orth_correct":0,"q":3,"question":"meets","rt":16942,"session":"a16128348","subject":"YRELO"},{"_id":{"$oid":"619d2c924e895c3605c99fd9"},"answer":"H","axis":"Orthogonal-XInside-YFull","clicks":1,"condition":"221","correct":1,"explicit":2,"impasse":2,"orth_correct":0,"q":4,"question":"endtime","rt":43898,"session":"a16128348","subject":"YRELO"},{"_id":{"$oid":"619d2c924e895c3605c99fda"},"answer":"A","axis":"Orthogonal-XInside-YFull","clicks":1,"condition":"221","correct":1,"explicit":2,"impasse":2,"orth_correct":0,"q":5,"question":"midpoint","rt":29984,"session":"a16128348","subject":"YRELO"},{"_id":{"$oid":"619d2c924e895c3605c99fdb"},"answer":"EG","axis":"Orthogonal-XInside-YFull","clicks":2.5,"condition":"221","correct":1,"explicit":2,"impasse":2,"orth_correct":1,"q":6,"question":"duration","rt":19683,"session":"a16128348","subject":"YRELO"},{"_id":{"$oid":"619d2c924e895c3605c99fdc"},"answer":"XO","axis":"Orthogonal-XInside-YFull","clicks":2,"condition":"221","correct":1,"explicit":2,"impasse":2,"orth_correct":0,"q":7,"question":"duration+starts","rt":24543,"session":"a16128348","subject":"YRELO"},{"_id":{"$oid":"619d2c924e895c3605c99fdd"},"answer":"G","axis":"Orthogonal-XInside-YFull","clicks":1,"condition":"221","correct":1,"explicit":2,"impasse":2,"orth_correct":0,"q":8,"question":"duration+contained","rt":57486,"session":"a16128348","subject":"YRELO"},{"_id":{"$oid":"619d2c924e895c3605c99fde"},"answer":"E","axis":"Orthogonal-XInside-YFull","clicks":1.5,"condition":"221","correct":0,"explicit":2,"impasse":2,"orth_correct":0,"q":9,"question":"starttime+before+endtime+during","rt":20468,"session":"a16128348","subject":"YRELO"},{"_id":{"$oid":"619d2c924e895c3605c99fdf"},"answer":"E","axis":"Orthogonal-XInside-YFull","clicks":1,"condition":"221","correct":1,"explicit":2,"impasse":2,"orth_correct":0,"q":10,"question":"ends","rt":10414,"session":"a16128348","subject":"YRELO"},{"_id":{"$oid":"619d2c924e895c3605c99fe0"},"answer":"JM","axis":"Orthogonal-XInside-YFull","clicks":2,"condition":"221","correct":0,"explicit":2,"impasse":2,"orth_correct":0,"q":11,"question":"starttime","rt":10865,"session":"a16128348","subject":"YRELO"},{"_id":{"$oid":"619d2c924e895c3605c99fe1"},"answer":"G","axis":"Orthogonal-XInside-YFull","clicks":1,"condition":"221","correct":1,"explicit":2,"impasse":2,"orth_correct":0,"q":12,"question":"starts","rt":17042,"session":"a16128348","subject":"YRELO"},{"_id":{"$oid":"619d2c924e895c3605c99fe2"},"answer":"EF","axis":"Orthogonal-XInside-YFull","clicks":2,"condition":"221","correct":1,"explicit":2,"impasse":2,"orth_correct":0,"q":13,"question":"meets","rt":18577,"session":"a16128348","subject":"YRELO"},{"_id":{"$oid":"619d2c924e895c3605c99fe3"},"answer":"X","axis":"Orthogonal-XInside-YFull","clicks":1,"condition":"221","correct":1,"explicit":2,"impasse":2,"orth_correct":0,"q":14,"question":"endtime","rt":7918,"session":"a16128348","subject":"YRELO"},{"_id":{"$oid":"619d2c924e895c3605c99fe4"},"answer":"KX","axis":"Orthogonal-XInside-YFull","clicks":2,"condition":"221","correct":1,"explicit":2,"impasse":2,"orth_correct":0,"q":15,"question":"midpoint","rt":15224,"session":"a16128348","subject":"YRELO"},{"_id":{"$oid":"619d2c924e895c3605c99fef"},"answer":"F","axis":"Orthogonal-XInside-YFull","clicks":1,"condition":"221","correct":1,"explicit":2,"impasse":2,"orth_correct":0,"q":1,"question":"starttime","rt":42324,"session":"a16348482","subject":"LZSME"},{"_id":{"$oid":"619d2c924e895c3605c99ff0"},"answer":"K","axis":"Orthogonal-XInside-YFull","clicks":1,"condition":"221","correct":1,"explicit":2,"impasse":2,"orth_correct":0,"q":2,"question":"starts","rt":25644,"session":"a16348482","subject":"LZSME"},{"_id":{"$oid":"619d2c924e895c3605c99ff1"},"answer":"F","axis":"Orthogonal-XInside-YFull","clicks":1.5,"condition":"221","correct":1,"explicit":2,"impasse":2,"orth_correct":0,"q":3,"question":"meets","rt":17536,"session":"a16348482","subject":"LZSME"},{"_id":{"$oid":"619d2c924e895c3605c99ff2"},"answer":"H","axis":"Orthogonal-XInside-YFull","clicks":1,"condition":"221","correct":1,"explicit":2,"impasse":2,"orth_correct":0,"q":4,"question":"endtime","rt":17241,"session":"a16348482","subject":"LZSME"},{"_id":{"$oid":"619d2c924e895c3605c99ff3"},"answer":"A","axis":"Orthogonal-XInside-YFull","clicks":1,"condition":"221","correct":1,"explicit":2,"impasse":2,"orth_correct":0,"q":5,"question":"midpoint","rt":58627,"session":"a16348482","subject":"LZSME"},{"_id":{"$oid":"619d2c924e895c3605c99ff4"},"answer":"EG","axis":"Orthogonal-XInside-YFull","clicks":2,"condition":"221","correct":1,"explicit":2,"impasse":2,"orth_correct":1,"q":6,"question":"duration","rt":33820,"session":"a16348482","subject":"LZSME"},{"_id":{"$oid":"619d2c924e895c3605c99ff5"},"answer":"XO","axis":"Orthogonal-XInside-YFull","clicks":7,"condition":"221","correct":1,"explicit":2,"impasse":2,"orth_correct":0,"q":7,"question":"duration+starts","rt":37382,"session":"a16348482","subject":"LZSME"},{"_id":{"$oid":"619d2c924e895c3605c99ff6"},"answer":"C","axis":"Orthogonal-XInside-YFull","clicks":1,"condition":"221","correct":0,"explicit":2,"impasse":2,"orth_correct":0,"q":8,"question":"duration+contained","rt":47164,"session":"a16348482","subject":"LZSME"},{"_id":{"$oid":"619d2c924e895c3605c99ff7"},"answer":"I","axis":"Orthogonal-XInside-YFull","clicks":1.5,"condition":"221","correct":1,"explicit":2,"impasse":2,"orth_correct":1,"q":9,"question":"starttime+before+endtime+during","rt":37580,"session":"a16348482","subject":"LZSME"},{"_id":{"$oid":"619d2c924e895c3605c99ff8"},"answer":"E","axis":"Orthogonal-XInside-YFull","clicks":1,"condition":"221","correct":1,"explicit":2,"impasse":2,"orth_correct":0,"q":10,"question":"ends","rt":13550,"session":"a16348482","subject":"LZSME"},{"_id":{"$oid":"619d2c924e895c3605c99ff9"},"answer":"ML","axis":"Orthogonal-XInside-YFull","clicks":2,"condition":"221","correct":1,"explicit":2,"impasse":2,"orth_correct":0,"q":11,"question":"starttime","rt":11597,"session":"a16348482","subject":"LZSME"},{"_id":{"$oid":"619d2c924e895c3605c99ffa"},"answer":"G","axis":"Orthogonal-XInside-YFull","clicks":1,"condition":"221","correct":1,"explicit":2,"impasse":2,"orth_correct":0,"q":12,"question":"starts","rt":7589,"session":"a16348482","subject":"LZSME"},{"_id":{"$oid":"619d2c924e895c3605c99ffb"},"answer":"F","axis":"Orthogonal-XInside-YFull","clicks":1.5,"condition":"221","correct":0,"explicit":2,"impasse":2,"orth_correct":0,"q":13,"question":"meets","rt":11700,"session":"a16348482","subject":"LZSME"},{"_id":{"$oid":"619d2c924e895c3605c99ffc"},"answer":"X","axis":"Orthogonal-XInside-YFull","clicks":2,"condition":"221","correct":1,"explicit":2,"impasse":2,"orth_correct":0,"q":14,"question":"endtime","rt":11311,"session":"a16348482","subject":"LZSME"},{"_id":{"$oid":"619d2c924e895c3605c99ffd"},"answer":"X","axis":"Orthogonal-XInside-YFull","clicks":1,"condition":"221","correct":0,"explicit":2,"impasse":2,"orth_correct":0,"q":15,"question":"midpoint","rt":20280,"session":"a16348482","subject":"LZSME"},{"_id":{"$oid":"619d2c924e895c3605c9a008"},"answer":"","axis":"Orthogonal-XInside-YFull","clicks":0,"condition":"121\n121","correct":0,"explicit":1,"impasse":2,"orth_correct":0,"q":1,"question":"starttime","rt":30562,"session":"a1677674","subject":"63VL0"},{"_id":{"$oid":"619d2c924e895c3605c9a009"},"answer":"K","axis":"Orthogonal-XInside-YFull","clicks":1,"condition":"121\n121","correct":1,"explicit":1,"impasse":2,"orth_correct":0,"q":2,"question":"starts","rt":42611,"session":"a1677674","subject":"63VL0"},{"_id":{"$oid":"619d2c924e895c3605c9a00a"},"answer":"F","axis":"Orthogonal-XInside-YFull","clicks":1,"condition":"121\n121","correct":1,"explicit":1,"impasse":2,"orth_correct":0,"q":3,"question":"meets","rt":23208,"session":"a1677674","subject":"63VL0"},{"_id":{"$oid":"619d2c924e895c3605c9a00b"},"answer":"D","axis":"Orthogonal-XInside-YFull","clicks":1,"condition":"121\n121","correct":0,"explicit":1,"impasse":2,"orth_correct":0,"q":4,"question":"endtime","rt":13857,"session":"a1677674","subject":"63VL0"},{"_id":{"$oid":"619d2c924e895c3605c9a00c"},"answer":"","axis":"Orthogonal-XInside-YFull","clicks":0,"condition":"121\n121","correct":0,"explicit":1,"impasse":2,"orth_correct":0,"q":5,"question":"midpoint","rt":36218,"session":"a1677674","subject":"63VL0"},{"_id":{"$oid":"619d2c924e895c3605c9a00d"},"answer":"EG","axis":"Orthogonal-XInside-YFull","clicks":2,"condition":"121\n121","correct":1,"explicit":1,"impasse":2,"orth_correct":1,"q":6,"question":"duration","rt":11258,"session":"a1677674","subject":"63VL0"},{"_id":{"$oid":"619d2c924e895c3605c9a00e"},"answer":"XO","axis":"Orthogonal-XInside-YFull","clicks":2,"condition":"121\n121","correct":1,"explicit":1,"impasse":2,"orth_correct":0,"q":7,"question":"duration+starts","rt":25782,"session":"a1677674","subject":"63VL0"},{"_id":{"$oid":"619d2c924e895c3605c9a00f"},"answer":"G","axis":"Orthogonal-XInside-YFull","clicks":1.5,"condition":"121\n121","correct":1,"explicit":1,"impasse":2,"orth_correct":0,"q":8,"question":"duration+contained","rt":57085,"session":"a1677674","subject":"63VL0"},{"_id":{"$oid":"619d2c924e895c3605c9a010"},"answer":"IEM","axis":"Orthogonal-XInside-YFull","clicks":3,"condition":"121\n121","correct":0,"explicit":1,"impasse":2,"orth_correct":0,"q":9,"question":"starttime+before+endtime+during","rt":69163,"session":"a1677674","subject":"63VL0"},{"_id":{"$oid":"619d2c924e895c3605c9a011"},"answer":"E","axis":"Orthogonal-XInside-YFull","clicks":1,"condition":"121\n121","correct":1,"explicit":1,"impasse":2,"orth_correct":0,"q":10,"question":"ends","rt":9011,"session":"a1677674","subject":"63VL0"},{"_id":{"$oid":"619d2c924e895c3605c9a012"},"answer":"ML","axis":"Orthogonal-XInside-YFull","clicks":2,"condition":"121\n121","correct":1,"explicit":1,"impasse":2,"orth_correct":0,"q":11,"question":"starttime","rt":22961,"session":"a1677674","subject":"63VL0"},{"_id":{"$oid":"619d2c924e895c3605c9a013"},"answer":"G","axis":"Orthogonal-XInside-YFull","clicks":1,"condition":"121\n121","correct":1,"explicit":1,"impasse":2,"orth_correct":0,"q":12,"question":"starts","rt":8279,"session":"a1677674","subject":"63VL0"},{"_id":{"$oid":"619d2c924e895c3605c9a014"},"answer":"EF","axis":"Orthogonal-XInside-YFull","clicks":3,"condition":"121\n121","correct":1,"explicit":1,"impasse":2,"orth_correct":0,"q":13,"question":"meets","rt":21448,"session":"a1677674","subject":"63VL0"},{"_id":{"$oid":"619d2c924e895c3605c9a015"},"answer":"X","axis":"Orthogonal-XInside-YFull","clicks":1,"condition":"121\n121","correct":1,"explicit":1,"impasse":2,"orth_correct":0,"q":14,"question":"endtime","rt":11658,"session":"a1677674","subject":"63VL0"},{"_id":{"$oid":"619d2c924e895c3605c9a016"},"answer":"KX","axis":"Orthogonal-XInside-YFull","clicks":2,"condition":"121\n121","correct":1,"explicit":1,"impasse":2,"orth_correct":0,"q":15,"question":"midpoint","rt":25950,"session":"a1677674","subject":"63VL0"},{"_id":{"$oid":"619d2c924e895c3605c9a03a"},"answer":"F","axis":"Orthogonal-XInside-YFull","clicks":3,"condition":"211","correct":1,"explicit":2,"impasse":1,"orth_correct":0,"q":1,"question":"starttime","rt":45395,"session":"a15769204","subject":"47SB1"},{"_id":{"$oid":"619d2c924e895c3605c9a03b"},"answer":"K","axis":"Orthogonal-XInside-YFull","clicks":1.5,"condition":"211","correct":1,"explicit":2,"impasse":1,"orth_correct":0,"q":2,"question":"starts","rt":10894,"session":"a15769204","subject":"47SB1"},{"_id":{"$oid":"619d2c924e895c3605c9a03c"},"answer":"F","axis":"Orthogonal-XInside-YFull","clicks":1,"condition":"211","correct":1,"explicit":2,"impasse":1,"orth_correct":0,"q":3,"question":"meets","rt":7447,"session":"a15769204","subject":"47SB1"},{"_id":{"$oid":"619d2c924e895c3605c9a03d"},"answer":"H","axis":"Orthogonal-XInside-YFull","clicks":1,"condition":"211","correct":1,"explicit":2,"impasse":1,"orth_correct":0,"q":4,"question":"endtime","rt":6532,"session":"a15769204","subject":"47SB1"},{"_id":{"$oid":"619d2c924e895c3605c9a03e"},"answer":"O","axis":"Orthogonal-XInside-YFull","clicks":1,"condition":"211","correct":1,"explicit":2,"impasse":1,"orth_correct":0,"q":5,"question":"midpoint","rt":11844,"session":"a15769204","subject":"47SB1"},{"_id":{"$oid":"619d2c924e895c3605c9a03f"},"answer":"EG","axis":"Orthogonal-XInside-YFull","clicks":2,"condition":"211","correct":1,"explicit":2,"impasse":1,"orth_correct":1,"q":6,"question":"duration","rt":15177,"session":"a15769204","subject":"47SB1"},{"_id":{"$oid":"619d2c924e895c3605c9a040"},"answer":"XO","axis":"Orthogonal-XInside-YFull","clicks":2.5,"condition":"211","correct":1,"explicit":2,"impasse":1,"orth_correct":0,"q":7,"question":"duration+starts","rt":27216,"session":"a15769204","subject":"47SB1"},{"_id":{"$oid":"619d2c924e895c3605c9a041"},"answer":"AG","axis":"Orthogonal-XInside-YFull","clicks":2,"condition":"211","correct":0,"explicit":2,"impasse":1,"orth_correct":0,"q":8,"question":"duration+contained","rt":24101,"session":"a15769204","subject":"47SB1"},{"_id":{"$oid":"619d2c924e895c3605c9a042"},"answer":"I","axis":"Orthogonal-XInside-YFull","clicks":3,"condition":"211","correct":1,"explicit":2,"impasse":1,"orth_correct":1,"q":9,"question":"starttime+before+endtime+during","rt":62257,"session":"a15769204","subject":"47SB1"},{"_id":{"$oid":"619d2c924e895c3605c9a043"},"answer":"E","axis":"Orthogonal-XInside-YFull","clicks":1,"condition":"211","correct":1,"explicit":2,"impasse":1,"orth_correct":0,"q":10,"question":"ends","rt":7380,"session":"a15769204","subject":"47SB1"},{"_id":{"$oid":"619d2c924e895c3605c9a044"},"answer":"ML","axis":"Orthogonal-XInside-YFull","clicks":2,"condition":"211","correct":1,"explicit":2,"impasse":1,"orth_correct":0,"q":11,"question":"starttime","rt":8194,"session":"a15769204","subject":"47SB1"},{"_id":{"$oid":"619d2c924e895c3605c9a045"},"answer":"FG","axis":"Orthogonal-XInside-YFull","clicks":2.5,"condition":"211","correct":0,"explicit":2,"impasse":1,"orth_correct":0,"q":12,"question":"starts","rt":7834,"session":"a15769204","subject":"47SB1"},{"_id":{"$oid":"619d2c924e895c3605c9a046"},"answer":"EF","axis":"Orthogonal-XInside-YFull","clicks":2,"condition":"211","correct":1,"explicit":2,"impasse":1,"orth_correct":0,"q":13,"question":"meets","rt":9918,"session":"a15769204","subject":"47SB1"},{"_id":{"$oid":"619d2c924e895c3605c9a047"},"answer":"X","axis":"Orthogonal-XInside-YFull","clicks":1,"condition":"211","correct":1,"explicit":2,"impasse":1,"orth_correct":0,"q":14,"question":"endtime","rt":7933,"session":"a15769204","subject":"47SB1"},{"_id":{"$oid":"619d2c924e895c3605c9a048"},"answer":"KX","axis":"Orthogonal-XInside-YFull","clicks":2.5,"condition":"211","correct":1,"explicit":2,"impasse":1,"orth_correct":0,"q":15,"question":"midpoint","rt":9886,"session":"a15769204","subject":"47SB1"},{"_id":{"$oid":"619d2c924e895c3605c9a085"},"answer":"F","axis":"Orthogonal-XInside-YFull","clicks":3,"condition":"321","correct":1,"explicit":3,"impasse":2,"orth_correct":0,"q":1,"question":"starttime","rt":33085,"session":"a15458549","subject":"DGVGP"},{"_id":{"$oid":"619d2c924e895c3605c9a086"},"answer":"K","axis":"Orthogonal-XInside-YFull","clicks":1,"condition":"321","correct":1,"explicit":3,"impasse":2,"orth_correct":0,"q":2,"question":"starts","rt":12635,"session":"a15458549","subject":"DGVGP"},{"_id":{"$oid":"619d2c924e895c3605c9a087"},"answer":"F","axis":"Orthogonal-XInside-YFull","clicks":1,"condition":"321","correct":1,"explicit":3,"impasse":2,"orth_correct":0,"q":3,"question":"meets","rt":9167,"session":"a15458549","subject":"DGVGP"},{"_id":{"$oid":"619d2c924e895c3605c9a088"},"answer":"H","axis":"Orthogonal-XInside-YFull","clicks":1,"condition":"321","correct":1,"explicit":3,"impasse":2,"orth_correct":0,"q":4,"question":"endtime","rt":10596,"session":"a15458549","subject":"DGVGP"},{"_id":{"$oid":"619d2c924e895c3605c9a089"},"answer":"A","axis":"Orthogonal-XInside-YFull","clicks":1,"condition":"321","correct":1,"explicit":3,"impasse":2,"orth_correct":0,"q":5,"question":"midpoint","rt":12323,"session":"a15458549","subject":"DGVGP"},{"_id":{"$oid":"619d2c924e895c3605c9a08a"},"answer":"EG","axis":"Orthogonal-XInside-YFull","clicks":2,"condition":"321","correct":1,"explicit":3,"impasse":2,"orth_correct":1,"q":6,"question":"duration","rt":13256,"session":"a15458549","subject":"DGVGP"},{"_id":{"$oid":"619d2c924e895c3605c9a08b"},"answer":"XO","axis":"Orthogonal-XInside-YFull","clicks":2,"condition":"321","correct":1,"explicit":3,"impasse":2,"orth_correct":0,"q":7,"question":"duration+starts","rt":22109,"session":"a15458549","subject":"DGVGP"},{"_id":{"$oid":"619d2c924e895c3605c9a08c"},"answer":"AK","axis":"Orthogonal-XInside-YFull","clicks":2,"condition":"321","correct":0,"explicit":3,"impasse":2,"orth_correct":0,"q":8,"question":"duration+contained","rt":35597,"session":"a15458549","subject":"DGVGP"},{"_id":{"$oid":"619d2c924e895c3605c9a08d"},"answer":"I","axis":"Orthogonal-XInside-YFull","clicks":1,"condition":"321","correct":1,"explicit":3,"impasse":2,"orth_correct":1,"q":9,"question":"starttime+before+endtime+during","rt":16753,"session":"a15458549","subject":"DGVGP"},{"_id":{"$oid":"619d2c924e895c3605c9a08e"},"answer":"E","axis":"Orthogonal-XInside-YFull","clicks":1,"condition":"321","correct":1,"explicit":3,"impasse":2,"orth_correct":0,"q":10,"question":"ends","rt":10071,"session":"a15458549","subject":"DGVGP"},{"_id":{"$oid":"619d2c924e895c3605c9a08f"},"answer":"M","axis":"Orthogonal-XInside-YFull","clicks":1,"condition":"321","correct":0,"explicit":3,"impasse":2,"orth_correct":0,"q":11,"question":"starttime","rt":5776,"session":"a15458549","subject":"DGVGP"},{"_id":{"$oid":"619d2c924e895c3605c9a090"},"answer":"G","axis":"Orthogonal-XInside-YFull","clicks":1,"condition":"321","correct":1,"explicit":3,"impasse":2,"orth_correct":0,"q":12,"question":"starts","rt":7928,"session":"a15458549","subject":"DGVGP"},{"_id":{"$oid":"619d2c924e895c3605c9a091"},"answer":"EF","axis":"Orthogonal-XInside-YFull","clicks":2,"condition":"321","correct":1,"explicit":3,"impasse":2,"orth_correct":0,"q":13,"question":"meets","rt":14592,"session":"a15458549","subject":"DGVGP"},{"_id":{"$oid":"619d2c924e895c3605c9a092"},"answer":"X","axis":"Orthogonal-XInside-YFull","clicks":2,"condition":"321","correct":1,"explicit":3,"impasse":2,"orth_correct":0,"q":14,"question":"endtime","rt":8240,"session":"a15458549","subject":"DGVGP"},{"_id":{"$oid":"619d2c924e895c3605c9a093"},"answer":"KX","axis":"Orthogonal-XInside-YFull","clicks":2.5,"condition":"321","correct":1,"explicit":3,"impasse":2,"orth_correct":0,"q":15,"question":"midpoint","rt":16865,"session":"a15458549","subject":"DGVGP"},{"_id":{"$oid":"619d2c924e895c3605c9a09e"},"answer":"A","axis":"Orthogonal-XInside-YFull","clicks":1,"condition":"311","correct":0,"explicit":3,"impasse":1,"orth_correct":1,"q":1,"question":"starttime","rt":41108,"session":"a13190800","subject":"TE7JZ"},{"_id":{"$oid":"619d2c924e895c3605c9a09f"},"answer":"E","axis":"Orthogonal-XInside-YFull","clicks":1,"condition":"311","correct":0,"explicit":3,"impasse":1,"orth_correct":1,"q":2,"question":"starts","rt":32246,"session":"a13190800","subject":"TE7JZ"},{"_id":{"$oid":"619d2c924e895c3605c9a0a0"},"answer":"AF","axis":"Orthogonal-XInside-YFull","clicks":2,"condition":"311","correct":0,"explicit":3,"impasse":1,"orth_correct":0,"q":3,"question":"meets","rt":74534,"session":"a13190800","subject":"TE7JZ"},{"_id":{"$oid":"619d2c924e895c3605c9a0a1"},"answer":"H","axis":"Orthogonal-XInside-YFull","clicks":1,"condition":"311","correct":1,"explicit":3,"impasse":1,"orth_correct":0,"q":4,"question":"endtime","rt":34173,"session":"a13190800","subject":"TE7JZ"},{"_id":{"$oid":"619d2c924e895c3605c9a0a2"},"answer":"O","axis":"Orthogonal-XInside-YFull","clicks":1.5,"condition":"311","correct":1,"explicit":3,"impasse":1,"orth_correct":0,"q":5,"question":"midpoint","rt":138748,"session":"a13190800","subject":"TE7JZ"},{"_id":{"$oid":"619d2c924e895c3605c9a0a3"},"answer":"EG","axis":"Orthogonal-XInside-YFull","clicks":2,"condition":"311","correct":1,"explicit":3,"impasse":1,"orth_correct":1,"q":6,"question":"duration","rt":12790,"session":"a13190800","subject":"TE7JZ"},{"_id":{"$oid":"619d2c924e895c3605c9a0a4"},"answer":"","axis":"Orthogonal-XInside-YFull","clicks":0,"condition":"311","correct":0,"explicit":3,"impasse":1,"orth_correct":0,"q":7,"question":"duration+starts","rt":75210,"session":"a13190800","subject":"TE7JZ"},{"_id":{"$oid":"619d2c924e895c3605c9a0a5"},"answer":"","axis":"Orthogonal-XInside-YFull","clicks":0,"condition":"311","correct":0,"explicit":3,"impasse":1,"orth_correct":0,"q":8,"question":"duration+contained","rt":186766,"session":"a13190800","subject":"TE7JZ"},{"_id":{"$oid":"619d2c924e895c3605c9a0a6"},"answer":"IM","axis":"Orthogonal-XInside-YFull","clicks":2,"condition":"311","correct":0,"explicit":3,"impasse":1,"orth_correct":0,"q":9,"question":"starttime+before+endtime+during","rt":141702,"session":"a13190800","subject":"TE7JZ"},{"_id":{"$oid":"619d2c924e895c3605c9a0a7"},"answer":"","axis":"Orthogonal-XInside-YFull","clicks":0,"condition":"311","correct":0,"explicit":3,"impasse":1,"orth_correct":0,"q":10,"question":"ends","rt":39719,"session":"a13190800","subject":"TE7JZ"},{"_id":{"$oid":"619d2c924e895c3605c9a0a8"},"answer":"FB","axis":"Orthogonal-XInside-YFull","clicks":2,"condition":"311","correct":0,"explicit":3,"impasse":1,"orth_correct":1,"q":11,"question":"starttime","rt":1487203,"session":"a13190800","subject":"TE7JZ"},{"_id":{"$oid":"619d2c924e895c3605c9a0a9"},"answer":"B","axis":"Orthogonal-XInside-YFull","clicks":1,"condition":"311","correct":0,"explicit":3,"impasse":1,"orth_correct":1,"q":12,"question":"starts","rt":18025,"session":"a13190800","subject":"TE7JZ"},{"_id":{"$oid":"619d2c924e895c3605c9a0aa"},"answer":"","axis":"Orthogonal-XInside-YFull","clicks":0,"condition":"311","correct":0,"explicit":3,"impasse":1,"orth_correct":0,"q":13,"question":"meets","rt":17792,"session":"a13190800","subject":"TE7JZ"},{"_id":{"$oid":"619d2c924e895c3605c9a0ab"},"answer":"X","axis":"Orthogonal-XInside-YFull","clicks":1.5,"condition":"311","correct":1,"explicit":3,"impasse":1,"orth_correct":0,"q":14,"question":"endtime","rt":42708,"session":"a13190800","subject":"TE7JZ"},{"_id":{"$oid":"619d2c924e895c3605c9a0ac"},"answer":"KX","axis":"Orthogonal-XInside-YFull","clicks":2,"condition":"311","correct":1,"explicit":3,"impasse":1,"orth_correct":0,"q":15,"question":"midpoint","rt":36166,"session":"a13190800","subject":"TE7JZ"},{"_id":{"$oid":"619d2c924e895c3605c9a0b7"},"answer":"F","axis":"Orthogonal-XInside-YFull","clicks":1,"condition":"111","correct":1,"explicit":1,"impasse":1,"orth_correct":0,"q":1,"question":"starttime","rt":43203,"session":"hollanlab","subject":"5N035"},{"_id":{"$oid":"619d2c924e895c3605c9a0b8"},"answer":"K","axis":"Orthogonal-XInside-YFull","clicks":1,"condition":"111","correct":1,"explicit":1,"impasse":1,"orth_correct":0,"q":2,"question":"starts","rt":14348,"session":"hollanlab","subject":"5N035"},{"_id":{"$oid":"619d2c924e895c3605c9a0b9"},"answer":"F","axis":"Orthogonal-XInside-YFull","clicks":1,"condition":"111","correct":1,"explicit":1,"impasse":1,"orth_correct":0,"q":3,"question":"meets","rt":10288,"session":"hollanlab","subject":"5N035"},{"_id":{"$oid":"619d2c924e895c3605c9a0ba"},"answer":"H","axis":"Orthogonal-XInside-YFull","clicks":1,"condition":"111","correct":1,"explicit":1,"impasse":1,"orth_correct":0,"q":4,"question":"endtime","rt":10284,"session":"hollanlab","subject":"5N035"},{"_id":{"$oid":"619d2c924e895c3605c9a0bb"},"answer":"O","axis":"Orthogonal-XInside-YFull","clicks":1,"condition":"111","correct":1,"explicit":1,"impasse":1,"orth_correct":0,"q":5,"question":"midpoint","rt":18005,"session":"hollanlab","subject":"5N035"},{"_id":{"$oid":"619d2c924e895c3605c9a0bc"},"answer":"EG","axis":"Orthogonal-XInside-YFull","clicks":2,"condition":"111","correct":1,"explicit":1,"impasse":1,"orth_correct":1,"q":6,"question":"duration","rt":9001,"session":"hollanlab","subject":"5N035"},{"_id":{"$oid":"619d2c924e895c3605c9a0bd"},"answer":"XO","axis":"Orthogonal-XInside-YFull","clicks":2,"condition":"111","correct":1,"explicit":1,"impasse":1,"orth_correct":0,"q":7,"question":"duration+starts","rt":33719,"session":"hollanlab","subject":"5N035"},{"_id":{"$oid":"619d2c924e895c3605c9a0be"},"answer":"G","axis":"Orthogonal-XInside-YFull","clicks":1,"condition":"111","correct":1,"explicit":1,"impasse":1,"orth_correct":0,"q":8,"question":"duration+contained","rt":91701,"session":"hollanlab","subject":"5N035"},{"_id":{"$oid":"619d2c924e895c3605c9a0bf"},"answer":"F","axis":"Orthogonal-XInside-YFull","clicks":1.5,"condition":"111","correct":0,"explicit":1,"impasse":1,"orth_correct":0,"q":9,"question":"starttime+before+endtime+during","rt":38132,"session":"hollanlab","subject":"5N035"},{"_id":{"$oid":"619d2c924e895c3605c9a0c0"},"answer":"E","axis":"Orthogonal-XInside-YFull","clicks":1,"condition":"111","correct":1,"explicit":1,"impasse":1,"orth_correct":0,"q":10,"question":"ends","rt":13149,"session":"hollanlab","subject":"5N035"},{"_id":{"$oid":"619d2c924e895c3605c9a0c1"},"answer":"ML","axis":"Orthogonal-XInside-YFull","clicks":2,"condition":"111","correct":1,"explicit":1,"impasse":1,"orth_correct":0,"q":11,"question":"starttime","rt":9225,"session":"hollanlab","subject":"5N035"},{"_id":{"$oid":"619d2c924e895c3605c9a0c2"},"answer":"G","axis":"Orthogonal-XInside-YFull","clicks":1,"condition":"111","correct":1,"explicit":1,"impasse":1,"orth_correct":0,"q":12,"question":"starts","rt":10726,"session":"hollanlab","subject":"5N035"},{"_id":{"$oid":"619d2c924e895c3605c9a0c3"},"answer":"EF","axis":"Orthogonal-XInside-YFull","clicks":2,"condition":"111","correct":1,"explicit":1,"impasse":1,"orth_correct":0,"q":13,"question":"meets","rt":19261,"session":"hollanlab","subject":"5N035"},{"_id":{"$oid":"619d2c924e895c3605c9a0c4"},"answer":"X","axis":"Orthogonal-XInside-YFull","clicks":1,"condition":"111","correct":1,"explicit":1,"impasse":1,"orth_correct":0,"q":14,"question":"endtime","rt":12928,"session":"hollanlab","subject":"5N035"},{"_id":{"$oid":"619d2c924e895c3605c9a0c5"},"answer":"KX","axis":"Orthogonal-XInside-YFull","clicks":2,"condition":"111","correct":1,"explicit":1,"impasse":1,"orth_correct":0,"q":15,"question":"midpoint","rt":20610,"session":"hollanlab","subject":"5N035"},{"_id":{"$oid":"619d2c924e895c3605c9a0d0"},"answer":"F","axis":"Orthogonal-XInside-YFull","clicks":1,"condition":"221","correct":1,"explicit":2,"impasse":2,"orth_correct":0,"q":1,"question":"starttime","rt":69882,"session":"a15435687","subject":"1H0SY"},{"_id":{"$oid":"619d2c924e895c3605c9a0d1"},"answer":"K","axis":"Orthogonal-XInside-YFull","clicks":1,"condition":"221","correct":1,"explicit":2,"impasse":2,"orth_correct":0,"q":2,"question":"starts","rt":8697,"session":"a15435687","subject":"1H0SY"},{"_id":{"$oid":"619d2c924e895c3605c9a0d2"},"answer":"F","axis":"Orthogonal-XInside-YFull","clicks":1,"condition":"221","correct":1,"explicit":2,"impasse":2,"orth_correct":0,"q":3,"question":"meets","rt":8400,"session":"a15435687","subject":"1H0SY"},{"_id":{"$oid":"619d2c924e895c3605c9a0d3"},"answer":"H","axis":"Orthogonal-XInside-YFull","clicks":1,"condition":"221","correct":1,"explicit":2,"impasse":2,"orth_correct":0,"q":4,"question":"endtime","rt":9567,"session":"a15435687","subject":"1H0SY"},{"_id":{"$oid":"619d2c924e895c3605c9a0d4"},"answer":"A","axis":"Orthogonal-XInside-YFull","clicks":1,"condition":"221","correct":1,"explicit":2,"impasse":2,"orth_correct":0,"q":5,"question":"midpoint","rt":18956,"session":"a15435687","subject":"1H0SY"},{"_id":{"$oid":"619d2c924e895c3605c9a0d5"},"answer":"EG","axis":"Orthogonal-XInside-YFull","clicks":4,"condition":"221","correct":1,"explicit":2,"impasse":2,"orth_correct":1,"q":6,"question":"duration","rt":51227,"session":"a15435687","subject":"1H0SY"},{"_id":{"$oid":"619d2c924e895c3605c9a0d6"},"answer":"XO","axis":"Orthogonal-XInside-YFull","clicks":2,"condition":"221","correct":1,"explicit":2,"impasse":2,"orth_correct":0,"q":7,"question":"duration+starts","rt":28970,"session":"a15435687","subject":"1H0SY"},{"_id":{"$oid":"619d2c924e895c3605c9a0d7"},"answer":"A","axis":"Orthogonal-XInside-YFull","clicks":1,"condition":"221","correct":0,"explicit":2,"impasse":2,"orth_correct":0,"q":8,"question":"duration+contained","rt":35611,"session":"a15435687","subject":"1H0SY"},{"_id":{"$oid":"619d2c924e895c3605c9a0d8"},"answer":"E","axis":"Orthogonal-XInside-YFull","clicks":1,"condition":"221","correct":0,"explicit":2,"impasse":2,"orth_correct":0,"q":9,"question":"starttime+before+endtime+during","rt":16914,"session":"a15435687","subject":"1H0SY"},{"_id":{"$oid":"619d2c924e895c3605c9a0d9"},"answer":"E","axis":"Orthogonal-XInside-YFull","clicks":1,"condition":"221","correct":1,"explicit":2,"impasse":2,"orth_correct":0,"q":10,"question":"ends","rt":11360,"session":"a15435687","subject":"1H0SY"},{"_id":{"$oid":"619d2c924e895c3605c9a0da"},"answer":"ML","axis":"Orthogonal-XInside-YFull","clicks":2,"condition":"221","correct":1,"explicit":2,"impasse":2,"orth_correct":0,"q":11,"question":"starttime","rt":6219,"session":"a15435687","subject":"1H0SY"},{"_id":{"$oid":"619d2c924e895c3605c9a0db"},"answer":"G","axis":"Orthogonal-XInside-YFull","clicks":1.5,"condition":"221","correct":1,"explicit":2,"impasse":2,"orth_correct":0,"q":12,"question":"starts","rt":9609,"session":"a15435687","subject":"1H0SY"},{"_id":{"$oid":"619d2c924e895c3605c9a0dc"},"answer":"EF","axis":"Orthogonal-XInside-YFull","clicks":2.5,"condition":"221","correct":1,"explicit":2,"impasse":2,"orth_correct":0,"q":13,"question":"meets","rt":21429,"session":"a15435687","subject":"1H0SY"},{"_id":{"$oid":"619d2c924e895c3605c9a0dd"},"answer":"X","axis":"Orthogonal-XInside-YFull","clicks":1,"condition":"221","correct":1,"explicit":2,"impasse":2,"orth_correct":0,"q":14,"question":"endtime","rt":7837,"session":"a15435687","subject":"1H0SY"},{"_id":{"$oid":"619d2c924e895c3605c9a0de"},"answer":"CK","axis":"Orthogonal-XInside-YFull","clicks":2,"condition":"221","correct":0,"explicit":2,"impasse":2,"orth_correct":0,"q":15,"question":"midpoint","rt":19466,"session":"a15435687","subject":"1H0SY"},{"_id":{"$oid":"619d2c924e895c3605c9a0e9"},"answer":"F","axis":"Orthogonal-XInside-YFull","clicks":1,"condition":"221","correct":1,"explicit":2,"impasse":2,"orth_correct":0,"q":1,"question":"starttime","rt":10702,"session":"a16031916","subject":"UDSVX"},{"_id":{"$oid":"619d2c924e895c3605c9a0ea"},"answer":"K","axis":"Orthogonal-XInside-YFull","clicks":1,"condition":"221","correct":1,"explicit":2,"impasse":2,"orth_correct":0,"q":2,"question":"starts","rt":9557,"session":"a16031916","subject":"UDSVX"},{"_id":{"$oid":"619d2c924e895c3605c9a0eb"},"answer":"F","axis":"Orthogonal-XInside-YFull","clicks":1,"condition":"221","correct":1,"explicit":2,"impasse":2,"orth_correct":0,"q":3,"question":"meets","rt":11701,"session":"a16031916","subject":"UDSVX"},{"_id":{"$oid":"619d2c924e895c3605c9a0ec"},"answer":"H","axis":"Orthogonal-XInside-YFull","clicks":1,"condition":"221","correct":1,"explicit":2,"impasse":2,"orth_correct":0,"q":4,"question":"endtime","rt":7379,"session":"a16031916","subject":"UDSVX"},{"_id":{"$oid":"619d2c924e895c3605c9a0ed"},"answer":"A","axis":"Orthogonal-XInside-YFull","clicks":1,"condition":"221","correct":1,"explicit":2,"impasse":2,"orth_correct":0,"q":5,"question":"midpoint","rt":12658,"session":"a16031916","subject":"UDSVX"},{"_id":{"$oid":"619d2c924e895c3605c9a0ee"},"answer":"EG","axis":"Orthogonal-XInside-YFull","clicks":2.5,"condition":"221","correct":1,"explicit":2,"impasse":2,"orth_correct":1,"q":6,"question":"duration","rt":15912,"session":"a16031916","subject":"UDSVX"},{"_id":{"$oid":"619d2c924e895c3605c9a0ef"},"answer":"XO","axis":"Orthogonal-XInside-YFull","clicks":2,"condition":"221","correct":1,"explicit":2,"impasse":2,"orth_correct":0,"q":7,"question":"duration+starts","rt":12797,"session":"a16031916","subject":"UDSVX"},{"_id":{"$oid":"619d2c924e895c3605c9a0f0"},"answer":"M","axis":"Orthogonal-XInside-YFull","clicks":1,"condition":"221","correct":0,"explicit":2,"impasse":2,"orth_correct":0,"q":8,"question":"duration+contained","rt":36997,"session":"a16031916","subject":"UDSVX"},{"_id":{"$oid":"619d2c924e895c3605c9a0f1"},"answer":"I","axis":"Orthogonal-XInside-YFull","clicks":1.5,"condition":"221","correct":1,"explicit":2,"impasse":2,"orth_correct":1,"q":9,"question":"starttime+before+endtime+during","rt":22156,"session":"a16031916","subject":"UDSVX"},{"_id":{"$oid":"619d2c924e895c3605c9a0f2"},"answer":"E","axis":"Orthogonal-XInside-YFull","clicks":1,"condition":"221","correct":1,"explicit":2,"impasse":2,"orth_correct":0,"q":10,"question":"ends","rt":10915,"session":"a16031916","subject":"UDSVX"},{"_id":{"$oid":"619d2c924e895c3605c9a0f3"},"answer":"ML","axis":"Orthogonal-XInside-YFull","clicks":2,"condition":"221","correct":1,"explicit":2,"impasse":2,"orth_correct":0,"q":11,"question":"starttime","rt":22706,"session":"a16031916","subject":"UDSVX"},{"_id":{"$oid":"619d2c924e895c3605c9a0f4"},"answer":"G","axis":"Orthogonal-XInside-YFull","clicks":1,"condition":"221","correct":1,"explicit":2,"impasse":2,"orth_correct":0,"q":12,"question":"starts","rt":10726,"session":"a16031916","subject":"UDSVX"},{"_id":{"$oid":"619d2c924e895c3605c9a0f5"},"answer":"EF","axis":"Orthogonal-XInside-YFull","clicks":2.5,"condition":"221","correct":1,"explicit":2,"impasse":2,"orth_correct":0,"q":13,"question":"meets","rt":12986,"session":"a16031916","subject":"UDSVX"},{"_id":{"$oid":"619d2c924e895c3605c9a0f6"},"answer":"X","axis":"Orthogonal-XInside-YFull","clicks":1,"condition":"221","correct":1,"explicit":2,"impasse":2,"orth_correct":0,"q":14,"question":"endtime","rt":10510,"session":"a16031916","subject":"UDSVX"},{"_id":{"$oid":"619d2c924e895c3605c9a0f7"},"answer":"KX","axis":"Orthogonal-XInside-YFull","clicks":2.5,"condition":"221","correct":1,"explicit":2,"impasse":2,"orth_correct":0,"q":15,"question":"midpoint","rt":13371,"session":"a16031916","subject":"UDSVX"},{"_id":{"$oid":"619d2c924e895c3605c9a102"},"answer":"F","axis":"Orthogonal-XInside-YFull","clicks":1,"condition":"321","correct":1,"explicit":3,"impasse":2,"orth_correct":0,"q":1,"question":"starttime","rt":21108,"session":"a15839275","subject":"9PELV"},{"_id":{"$oid":"619d2c924e895c3605c9a103"},"answer":"K","axis":"Orthogonal-XInside-YFull","clicks":1,"condition":"321","correct":1,"explicit":3,"impasse":2,"orth_correct":0,"q":2,"question":"starts","rt":17995,"session":"a15839275","subject":"9PELV"},{"_id":{"$oid":"619d2c924e895c3605c9a104"},"answer":"F","axis":"Orthogonal-XInside-YFull","clicks":1,"condition":"321","correct":1,"explicit":3,"impasse":2,"orth_correct":0,"q":3,"question":"meets","rt":13880,"session":"a15839275","subject":"9PELV"},{"_id":{"$oid":"619d2c924e895c3605c9a105"},"answer":"B","axis":"Orthogonal-XInside-YFull","clicks":1,"condition":"321","correct":0,"explicit":3,"impasse":2,"orth_correct":0,"q":4,"question":"endtime","rt":42128,"session":"a15839275","subject":"9PELV"},{"_id":{"$oid":"619d2c924e895c3605c9a106"},"answer":"A","axis":"Orthogonal-XInside-YFull","clicks":1,"condition":"321","correct":1,"explicit":3,"impasse":2,"orth_correct":0,"q":5,"question":"midpoint","rt":27688,"session":"a15839275","subject":"9PELV"},{"_id":{"$oid":"619d2c924e895c3605c9a107"},"answer":"EG","axis":"Orthogonal-XInside-YFull","clicks":2,"condition":"321","correct":1,"explicit":3,"impasse":2,"orth_correct":1,"q":6,"question":"duration","rt":15115,"session":"a15839275","subject":"9PELV"},{"_id":{"$oid":"619d2c924e895c3605c9a108"},"answer":"XO","axis":"Orthogonal-XInside-YFull","clicks":2,"condition":"321","correct":1,"explicit":3,"impasse":2,"orth_correct":0,"q":7,"question":"duration+starts","rt":36526,"session":"a15839275","subject":"9PELV"},{"_id":{"$oid":"619d2c924e895c3605c9a109"},"answer":"IJEFG","axis":"Orthogonal-XInside-YFull","clicks":5,"condition":"321","correct":0,"explicit":3,"impasse":2,"orth_correct":0,"q":8,"question":"duration+contained","rt":36265,"session":"a15839275","subject":"9PELV"},{"_id":{"$oid":"619d2c924e895c3605c9a10a"},"answer":"I","axis":"Orthogonal-XInside-YFull","clicks":1,"condition":"321","correct":1,"explicit":3,"impasse":2,"orth_correct":1,"q":9,"question":"starttime+before+endtime+during","rt":26591,"session":"a15839275","subject":"9PELV"},{"_id":{"$oid":"619d2c924e895c3605c9a10b"},"answer":"E","axis":"Orthogonal-XInside-YFull","clicks":1,"condition":"321","correct":1,"explicit":3,"impasse":2,"orth_correct":0,"q":10,"question":"ends","rt":10973,"session":"a15839275","subject":"9PELV"},{"_id":{"$oid":"619d2c924e895c3605c9a10c"},"answer":"ML","axis":"Orthogonal-XInside-YFull","clicks":2.5,"condition":"321","correct":1,"explicit":3,"impasse":2,"orth_correct":0,"q":11,"question":"starttime","rt":11078,"session":"a15839275","subject":"9PELV"},{"_id":{"$oid":"619d2c924e895c3605c9a10d"},"answer":"FG","axis":"Orthogonal-XInside-YFull","clicks":2,"condition":"321","correct":0,"explicit":3,"impasse":2,"orth_correct":0,"q":12,"question":"starts","rt":51304,"session":"a15839275","subject":"9PELV"},{"_id":{"$oid":"619d2c924e895c3605c9a10e"},"answer":"EF","axis":"Orthogonal-XInside-YFull","clicks":2,"condition":"321","correct":1,"explicit":3,"impasse":2,"orth_correct":0,"q":13,"question":"meets","rt":23990,"session":"a15839275","subject":"9PELV"},{"_id":{"$oid":"619d2c924e895c3605c9a10f"},"answer":"X","axis":"Orthogonal-XInside-YFull","clicks":1,"condition":"321","correct":1,"explicit":3,"impasse":2,"orth_correct":0,"q":14,"question":"endtime","rt":5633,"session":"a15839275","subject":"9PELV"},{"_id":{"$oid":"619d2c924e895c3605c9a110"},"answer":"KX","axis":"Orthogonal-XInside-YFull","clicks":2,"condition":"321","correct":1,"explicit":3,"impasse":2,"orth_correct":0,"q":15,"question":"midpoint","rt":12984,"session":"a15839275","subject":"9PELV"},{"_id":{"$oid":"619d2c924e895c3605c9a11b"},"answer":"F","axis":"Orthogonal-XInside-YFull","clicks":1,"condition":"121","correct":1,"explicit":1,"impasse":2,"orth_correct":0,"q":1,"question":"starttime","rt":180359,"session":"a15673149","subject":"1SY41"},{"_id":{"$oid":"619d2c924e895c3605c9a11c"},"answer":"K","axis":"Orthogonal-XInside-YFull","clicks":1,"condition":"121","correct":1,"explicit":1,"impasse":2,"orth_correct":0,"q":2,"question":"starts","rt":51100,"session":"a15673149","subject":"1SY41"},{"_id":{"$oid":"619d2c924e895c3605c9a11d"},"answer":"F","axis":"Orthogonal-XInside-YFull","clicks":1.5,"condition":"121","correct":1,"explicit":1,"impasse":2,"orth_correct":0,"q":3,"question":"meets","rt":22193,"session":"a15673149","subject":"1SY41"},{"_id":{"$oid":"619d2c924e895c3605c9a11e"},"answer":"H","axis":"Orthogonal-XInside-YFull","clicks":1,"condition":"121","correct":1,"explicit":1,"impasse":2,"orth_correct":0,"q":4,"question":"endtime","rt":16240,"session":"a15673149","subject":"1SY41"},{"_id":{"$oid":"619d2c924e895c3605c9a11f"},"answer":"A","axis":"Orthogonal-XInside-YFull","clicks":3.5,"condition":"121","correct":1,"explicit":1,"impasse":2,"orth_correct":0,"q":5,"question":"midpoint","rt":91223,"session":"a15673149","subject":"1SY41"},{"_id":{"$oid":"619d2c924e895c3605c9a120"},"answer":"EG","axis":"Orthogonal-XInside-YFull","clicks":2,"condition":"121","correct":1,"explicit":1,"impasse":2,"orth_correct":1,"q":6,"question":"duration","rt":8967,"session":"a15673149","subject":"1SY41"},{"_id":{"$oid":"619d2c924e895c3605c9a121"},"answer":"XO","axis":"Orthogonal-XInside-YFull","clicks":3,"condition":"121","correct":1,"explicit":1,"impasse":2,"orth_correct":0,"q":7,"question":"duration+starts","rt":34994,"session":"a15673149","subject":"1SY41"},{"_id":{"$oid":"619d2c924e895c3605c9a122"},"answer":"G","axis":"Orthogonal-XInside-YFull","clicks":5,"condition":"121","correct":1,"explicit":1,"impasse":2,"orth_correct":0,"q":8,"question":"duration+contained","rt":84549,"session":"a15673149","subject":"1SY41"},{"_id":{"$oid":"619d2c924e895c3605c9a123"},"answer":"I","axis":"Orthogonal-XInside-YFull","clicks":1,"condition":"121","correct":1,"explicit":1,"impasse":2,"orth_correct":1,"q":9,"question":"starttime+before+endtime+during","rt":39423,"session":"a15673149","subject":"1SY41"},{"_id":{"$oid":"619d2c924e895c3605c9a124"},"answer":"E","axis":"Orthogonal-XInside-YFull","clicks":1.5,"condition":"121","correct":1,"explicit":1,"impasse":2,"orth_correct":0,"q":10,"question":"ends","rt":20664,"session":"a15673149","subject":"1SY41"},{"_id":{"$oid":"619d2c924e895c3605c9a125"},"answer":"ML","axis":"Orthogonal-XInside-YFull","clicks":2,"condition":"121","correct":1,"explicit":1,"impasse":2,"orth_correct":0,"q":11,"question":"starttime","rt":10349,"session":"a15673149","subject":"1SY41"},{"_id":{"$oid":"619d2c924e895c3605c9a126"},"answer":"G","axis":"Orthogonal-XInside-YFull","clicks":1,"condition":"121","correct":1,"explicit":1,"impasse":2,"orth_correct":0,"q":12,"question":"starts","rt":19898,"session":"a15673149","subject":"1SY41"},{"_id":{"$oid":"619d2c924e895c3605c9a127"},"answer":"EF","axis":"Orthogonal-XInside-YFull","clicks":2,"condition":"121","correct":1,"explicit":1,"impasse":2,"orth_correct":0,"q":13,"question":"meets","rt":12174,"session":"a15673149","subject":"1SY41"},{"_id":{"$oid":"619d2c924e895c3605c9a128"},"answer":"X","axis":"Orthogonal-XInside-YFull","clicks":1,"condition":"121","correct":1,"explicit":1,"impasse":2,"orth_correct":0,"q":14,"question":"endtime","rt":15715,"session":"a15673149","subject":"1SY41"},{"_id":{"$oid":"619d2c924e895c3605c9a129"},"answer":"KX","axis":"Orthogonal-XInside-YFull","clicks":4,"condition":"121","correct":1,"explicit":1,"impasse":2,"orth_correct":0,"q":15,"question":"midpoint","rt":111081,"session":"a15673149","subject":"1SY41"},{"_id":{"$oid":"619d2c924e895c3605c9a134"},"answer":"F","axis":"Orthogonal-XInside-YFull","clicks":1,"condition":"211","correct":1,"explicit":2,"impasse":1,"orth_correct":0,"q":1,"question":"starttime","rt":73253,"session":"a15960387","subject":"SQ3V5"},{"_id":{"$oid":"619d2c924e895c3605c9a135"},"answer":"K","axis":"Orthogonal-XInside-YFull","clicks":1,"condition":"211","correct":1,"explicit":2,"impasse":1,"orth_correct":0,"q":2,"question":"starts","rt":19423,"session":"a15960387","subject":"SQ3V5"},{"_id":{"$oid":"619d2c924e895c3605c9a136"},"answer":"F","axis":"Orthogonal-XInside-YFull","clicks":1,"condition":"211","correct":1,"explicit":2,"impasse":1,"orth_correct":0,"q":3,"question":"meets","rt":26536,"session":"a15960387","subject":"SQ3V5"},{"_id":{"$oid":"619d2c924e895c3605c9a137"},"answer":"H","axis":"Orthogonal-XInside-YFull","clicks":1,"condition":"211","correct":1,"explicit":2,"impasse":1,"orth_correct":0,"q":4,"question":"endtime","rt":26294,"session":"a15960387","subject":"SQ3V5"},{"_id":{"$oid":"619d2c924e895c3605c9a138"},"answer":"O","axis":"Orthogonal-XInside-YFull","clicks":5.5,"condition":"211","correct":1,"explicit":2,"impasse":1,"orth_correct":0,"q":5,"question":"midpoint","rt":118328,"session":"a15960387","subject":"SQ3V5"},{"_id":{"$oid":"619d2c924e895c3605c9a139"},"answer":"EG","axis":"Orthogonal-XInside-YFull","clicks":2,"condition":"211","correct":1,"explicit":2,"impasse":1,"orth_correct":1,"q":6,"question":"duration","rt":45060,"session":"a15960387","subject":"SQ3V5"},{"_id":{"$oid":"619d2c924e895c3605c9a13a"},"answer":"XO","axis":"Orthogonal-XInside-YFull","clicks":2,"condition":"211","correct":1,"explicit":2,"impasse":1,"orth_correct":0,"q":7,"question":"duration+starts","rt":78710,"session":"a15960387","subject":"SQ3V5"},{"_id":{"$oid":"619d2c924e895c3605c9a13b"},"answer":"G","axis":"Orthogonal-XInside-YFull","clicks":1,"condition":"211","correct":1,"explicit":2,"impasse":1,"orth_correct":0,"q":8,"question":"duration+contained","rt":104796,"session":"a15960387","subject":"SQ3V5"},{"_id":{"$oid":"619d2c924e895c3605c9a13c"},"answer":"I","axis":"Orthogonal-XInside-YFull","clicks":3.5,"condition":"211","correct":1,"explicit":2,"impasse":1,"orth_correct":1,"q":9,"question":"starttime+before+endtime+during","rt":88267,"session":"a15960387","subject":"SQ3V5"},{"_id":{"$oid":"619d2c924e895c3605c9a13d"},"answer":"E","axis":"Orthogonal-XInside-YFull","clicks":1,"condition":"211","correct":1,"explicit":2,"impasse":1,"orth_correct":0,"q":10,"question":"ends","rt":48038,"session":"a15960387","subject":"SQ3V5"},{"_id":{"$oid":"619d2c924e895c3605c9a13e"},"answer":"ML","axis":"Orthogonal-XInside-YFull","clicks":2.5,"condition":"211","correct":1,"explicit":2,"impasse":1,"orth_correct":0,"q":11,"question":"starttime","rt":56731,"session":"a15960387","subject":"SQ3V5"},{"_id":{"$oid":"619d2c924e895c3605c9a13f"},"answer":"G","axis":"Orthogonal-XInside-YFull","clicks":1,"condition":"211","correct":1,"explicit":2,"impasse":1,"orth_correct":0,"q":12,"question":"starts","rt":30188,"session":"a15960387","subject":"SQ3V5"},{"_id":{"$oid":"619d2c924e895c3605c9a140"},"answer":"EF","axis":"Orthogonal-XInside-YFull","clicks":2.5,"condition":"211","correct":1,"explicit":2,"impasse":1,"orth_correct":0,"q":13,"question":"meets","rt":50521,"session":"a15960387","subject":"SQ3V5"},{"_id":{"$oid":"619d2c924e895c3605c9a141"},"answer":"X","axis":"Orthogonal-XInside-YFull","clicks":1,"condition":"211","correct":1,"explicit":2,"impasse":1,"orth_correct":0,"q":14,"question":"endtime","rt":24960,"session":"a15960387","subject":"SQ3V5"},{"_id":{"$oid":"619d2c924e895c3605c9a142"},"answer":"KX","axis":"Orthogonal-XInside-YFull","clicks":2,"condition":"211","correct":1,"explicit":2,"impasse":1,"orth_correct":0,"q":15,"question":"midpoint","rt":38008,"session":"a15960387","subject":"SQ3V5"},{"_id":{"$oid":"619d2c924e895c3605c9a14d"},"answer":"F","axis":"Orthogonal-XInside-YFull","clicks":3,"condition":"321","correct":1,"explicit":3,"impasse":2,"orth_correct":0,"q":1,"question":"starttime","rt":139697,"session":"a15378348","subject":"ZV99C"},{"_id":{"$oid":"619d2c924e895c3605c9a14e"},"answer":"K","axis":"Orthogonal-XInside-YFull","clicks":1,"condition":"321","correct":1,"explicit":3,"impasse":2,"orth_correct":0,"q":2,"question":"starts","rt":17835,"session":"a15378348","subject":"ZV99C"},{"_id":{"$oid":"619d2c924e895c3605c9a14f"},"answer":"F","axis":"Orthogonal-XInside-YFull","clicks":1,"condition":"321","correct":1,"explicit":3,"impasse":2,"orth_correct":0,"q":3,"question":"meets","rt":7115,"session":"a15378348","subject":"ZV99C"},{"_id":{"$oid":"619d2c924e895c3605c9a150"},"answer":"H","axis":"Orthogonal-XInside-YFull","clicks":1.5,"condition":"321","correct":1,"explicit":3,"impasse":2,"orth_correct":0,"q":4,"question":"endtime","rt":12609,"session":"a15378348","subject":"ZV99C"},{"_id":{"$oid":"619d2c924e895c3605c9a151"},"answer":"A","axis":"Orthogonal-XInside-YFull","clicks":1,"condition":"321","correct":1,"explicit":3,"impasse":2,"orth_correct":0,"q":5,"question":"midpoint","rt":40317,"session":"a15378348","subject":"ZV99C"},{"_id":{"$oid":"619d2c924e895c3605c9a152"},"answer":"EG","axis":"Orthogonal-XInside-YFull","clicks":2.5,"condition":"321","correct":1,"explicit":3,"impasse":2,"orth_correct":1,"q":6,"question":"duration","rt":15631,"session":"a15378348","subject":"ZV99C"},{"_id":{"$oid":"619d2c924e895c3605c9a153"},"answer":"XO","axis":"Orthogonal-XInside-YFull","clicks":2,"condition":"321","correct":1,"explicit":3,"impasse":2,"orth_correct":0,"q":7,"question":"duration+starts","rt":53859,"session":"a15378348","subject":"ZV99C"},{"_id":{"$oid":"619d2c924e895c3605c9a154"},"answer":"AG","axis":"Orthogonal-XInside-YFull","clicks":2.5,"condition":"321","correct":0,"explicit":3,"impasse":2,"orth_correct":0,"q":8,"question":"duration+contained","rt":84632,"session":"a15378348","subject":"ZV99C"},{"_id":{"$oid":"619d2c924e895c3605c9a155"},"answer":"I","axis":"Orthogonal-XInside-YFull","clicks":1,"condition":"321","correct":1,"explicit":3,"impasse":2,"orth_correct":1,"q":9,"question":"starttime+before+endtime+during","rt":55692,"session":"a15378348","subject":"ZV99C"},{"_id":{"$oid":"619d2c924e895c3605c9a156"},"answer":"E","axis":"Orthogonal-XInside-YFull","clicks":1,"condition":"321","correct":1,"explicit":3,"impasse":2,"orth_correct":0,"q":10,"question":"ends","rt":19172,"session":"a15378348","subject":"ZV99C"},{"_id":{"$oid":"619d2c924e895c3605c9a157"},"answer":"ML","axis":"Orthogonal-XInside-YFull","clicks":2,"condition":"321","correct":1,"explicit":3,"impasse":2,"orth_correct":0,"q":11,"question":"starttime","rt":22780,"session":"a15378348","subject":"ZV99C"},{"_id":{"$oid":"619d2c924e895c3605c9a158"},"answer":"G","axis":"Orthogonal-XInside-YFull","clicks":1.5,"condition":"321","correct":1,"explicit":3,"impasse":2,"orth_correct":0,"q":12,"question":"starts","rt":16798,"session":"a15378348","subject":"ZV99C"},{"_id":{"$oid":"619d2c924e895c3605c9a159"},"answer":"EF","axis":"Orthogonal-XInside-YFull","clicks":2.5,"condition":"321","correct":1,"explicit":3,"impasse":2,"orth_correct":0,"q":13,"question":"meets","rt":28572,"session":"a15378348","subject":"ZV99C"},{"_id":{"$oid":"619d2c924e895c3605c9a15a"},"answer":"X","axis":"Orthogonal-XInside-YFull","clicks":1.5,"condition":"321","correct":1,"explicit":3,"impasse":2,"orth_correct":0,"q":14,"question":"endtime","rt":13832,"session":"a15378348","subject":"ZV99C"},{"_id":{"$oid":"619d2c924e895c3605c9a15b"},"answer":"KX","axis":"Orthogonal-XInside-YFull","clicks":2,"condition":"321","correct":1,"explicit":3,"impasse":2,"orth_correct":0,"q":15,"question":"midpoint","rt":24012,"session":"a15378348","subject":"ZV99C"},{"_id":{"$oid":"619d2c924e895c3605c9a166"},"answer":"F","axis":"Orthogonal-XInside-YFull","clicks":3,"condition":"321","correct":1,"explicit":3,"impasse":2,"orth_correct":0,"q":1,"question":"starttime","rt":44265,"session":"a15543958","subject":"FW9D5"},{"_id":{"$oid":"619d2c924e895c3605c9a167"},"answer":"K","axis":"Orthogonal-XInside-YFull","clicks":1,"condition":"321","correct":1,"explicit":3,"impasse":2,"orth_correct":0,"q":2,"question":"starts","rt":13135,"session":"a15543958","subject":"FW9D5"},{"_id":{"$oid":"619d2c924e895c3605c9a168"},"answer":"F","axis":"Orthogonal-XInside-YFull","clicks":1,"condition":"321","correct":1,"explicit":3,"impasse":2,"orth_correct":0,"q":3,"question":"meets","rt":7893,"session":"a15543958","subject":"FW9D5"},{"_id":{"$oid":"619d2c924e895c3605c9a169"},"answer":"H","axis":"Orthogonal-XInside-YFull","clicks":1.5,"condition":"321","correct":1,"explicit":3,"impasse":2,"orth_correct":0,"q":4,"question":"endtime","rt":13097,"session":"a15543958","subject":"FW9D5"},{"_id":{"$oid":"619d2c924e895c3605c9a16a"},"answer":"A","axis":"Orthogonal-XInside-YFull","clicks":1,"condition":"321","correct":1,"explicit":3,"impasse":2,"orth_correct":0,"q":5,"question":"midpoint","rt":21809,"session":"a15543958","subject":"FW9D5"},{"_id":{"$oid":"619d2c924e895c3605c9a16b"},"answer":"EG","axis":"Orthogonal-XInside-YFull","clicks":2,"condition":"321","correct":1,"explicit":3,"impasse":2,"orth_correct":1,"q":6,"question":"duration","rt":14887,"session":"a15543958","subject":"FW9D5"},{"_id":{"$oid":"619d2c924e895c3605c9a16c"},"answer":"XO","axis":"Orthogonal-XInside-YFull","clicks":2,"condition":"321","correct":1,"explicit":3,"impasse":2,"orth_correct":0,"q":7,"question":"duration+starts","rt":29854,"session":"a15543958","subject":"FW9D5"},{"_id":{"$oid":"619d2c924e895c3605c9a16d"},"answer":"G","axis":"Orthogonal-XInside-YFull","clicks":11,"condition":"321","correct":1,"explicit":3,"impasse":2,"orth_correct":0,"q":8,"question":"duration+contained","rt":83411,"session":"a15543958","subject":"FW9D5"},{"_id":{"$oid":"619d2c924e895c3605c9a16e"},"answer":"E","axis":"Orthogonal-XInside-YFull","clicks":1,"condition":"321","correct":0,"explicit":3,"impasse":2,"orth_correct":0,"q":9,"question":"starttime+before+endtime+during","rt":40991,"session":"a15543958","subject":"FW9D5"},{"_id":{"$oid":"619d2c924e895c3605c9a16f"},"answer":"E","axis":"Orthogonal-XInside-YFull","clicks":1,"condition":"321","correct":1,"explicit":3,"impasse":2,"orth_correct":0,"q":10,"question":"ends","rt":11864,"session":"a15543958","subject":"FW9D5"},{"_id":{"$oid":"619d2c924e895c3605c9a170"},"answer":"ML","axis":"Orthogonal-XInside-YFull","clicks":2,"condition":"321","correct":1,"explicit":3,"impasse":2,"orth_correct":0,"q":11,"question":"starttime","rt":9755,"session":"a15543958","subject":"FW9D5"},{"_id":{"$oid":"619d2c924e895c3605c9a171"},"answer":"G","axis":"Orthogonal-XInside-YFull","clicks":1,"condition":"321","correct":1,"explicit":3,"impasse":2,"orth_correct":0,"q":12,"question":"starts","rt":8972,"session":"a15543958","subject":"FW9D5"},{"_id":{"$oid":"619d2c924e895c3605c9a172"},"answer":"EF","axis":"Orthogonal-XInside-YFull","clicks":2,"condition":"321","correct":1,"explicit":3,"impasse":2,"orth_correct":0,"q":13,"question":"meets","rt":14076,"session":"a15543958","subject":"FW9D5"},{"_id":{"$oid":"619d2c924e895c3605c9a173"},"answer":"X","axis":"Orthogonal-XInside-YFull","clicks":1,"condition":"321","correct":1,"explicit":3,"impasse":2,"orth_correct":0,"q":14,"question":"endtime","rt":9542,"session":"a15543958","subject":"FW9D5"},{"_id":{"$oid":"619d2c924e895c3605c9a174"},"answer":"KX","axis":"Orthogonal-XInside-YFull","clicks":2,"condition":"321","correct":1,"explicit":3,"impasse":2,"orth_correct":0,"q":15,"question":"midpoint","rt":12006,"session":"a15543958","subject":"FW9D5"},{"_id":{"$oid":"619d2c924e895c3605c9a17f"},"answer":"F","axis":"Orthogonal-XInside-YFull","clicks":1,"condition":"221\n221","correct":1,"explicit":2,"impasse":2,"orth_correct":0,"q":1,"question":"starttime","rt":40139,"session":"16132934","subject":"Q20EE"},{"_id":{"$oid":"619d2c924e895c3605c9a180"},"answer":"K","axis":"Orthogonal-XInside-YFull","clicks":1.5,"condition":"221\n221","correct":1,"explicit":2,"impasse":2,"orth_correct":0,"q":2,"question":"starts","rt":6807,"session":"16132934","subject":"Q20EE"},{"_id":{"$oid":"619d2c924e895c3605c9a181"},"answer":"F","axis":"Orthogonal-XInside-YFull","clicks":1.5,"condition":"221\n221","correct":1,"explicit":2,"impasse":2,"orth_correct":0,"q":3,"question":"meets","rt":7734,"session":"16132934","subject":"Q20EE"},{"_id":{"$oid":"619d2c924e895c3605c9a182"},"answer":"H","axis":"Orthogonal-XInside-YFull","clicks":1,"condition":"221\n221","correct":1,"explicit":2,"impasse":2,"orth_correct":0,"q":4,"question":"endtime","rt":5383,"session":"16132934","subject":"Q20EE"},{"_id":{"$oid":"619d2c924e895c3605c9a183"},"answer":"F","axis":"Orthogonal-XInside-YFull","clicks":1.5,"condition":"221\n221","correct":0,"explicit":2,"impasse":2,"orth_correct":0,"q":5,"question":"midpoint","rt":30994,"session":"16132934","subject":"Q20EE"},{"_id":{"$oid":"619d2c924e895c3605c9a184"},"answer":"EG","axis":"Orthogonal-XInside-YFull","clicks":2,"condition":"221\n221","correct":1,"explicit":2,"impasse":2,"orth_correct":1,"q":6,"question":"duration","rt":3978,"session":"16132934","subject":"Q20EE"},{"_id":{"$oid":"619d2c924e895c3605c9a185"},"answer":"FB","axis":"Orthogonal-XInside-YFull","clicks":3,"condition":"221\n221","correct":0,"explicit":2,"impasse":2,"orth_correct":1,"q":7,"question":"duration+starts","rt":18646,"session":"16132934","subject":"Q20EE"},{"_id":{"$oid":"619d2c924e895c3605c9a186"},"answer":"G","axis":"Orthogonal-XInside-YFull","clicks":1,"condition":"221\n221","correct":1,"explicit":2,"impasse":2,"orth_correct":0,"q":8,"question":"duration+contained","rt":98059,"session":"16132934","subject":"Q20EE"},{"_id":{"$oid":"619d2c924e895c3605c9a187"},"answer":"E","axis":"Orthogonal-XInside-YFull","clicks":1,"condition":"221\n221","correct":0,"explicit":2,"impasse":2,"orth_correct":0,"q":9,"question":"starttime+before+endtime+during","rt":35178,"session":"16132934","subject":"Q20EE"},{"_id":{"$oid":"619d2c924e895c3605c9a188"},"answer":"E","axis":"Orthogonal-XInside-YFull","clicks":1.5,"condition":"221\n221","correct":1,"explicit":2,"impasse":2,"orth_correct":0,"q":10,"question":"ends","rt":26114,"session":"16132934","subject":"Q20EE"},{"_id":{"$oid":"619d2c924e895c3605c9a189"},"answer":"ML","axis":"Orthogonal-XInside-YFull","clicks":2.5,"condition":"221\n221","correct":1,"explicit":2,"impasse":2,"orth_correct":0,"q":11,"question":"starttime","rt":7151,"session":"16132934","subject":"Q20EE"},{"_id":{"$oid":"619d2c924e895c3605c9a18a"},"answer":"G","axis":"Orthogonal-XInside-YFull","clicks":1,"condition":"221\n221","correct":1,"explicit":2,"impasse":2,"orth_correct":0,"q":12,"question":"starts","rt":4892,"session":"16132934","subject":"Q20EE"},{"_id":{"$oid":"619d2c924e895c3605c9a18b"},"answer":"EF","axis":"Orthogonal-XInside-YFull","clicks":2,"condition":"221\n221","correct":1,"explicit":2,"impasse":2,"orth_correct":0,"q":13,"question":"meets","rt":12765,"session":"16132934","subject":"Q20EE"},{"_id":{"$oid":"619d2c924e895c3605c9a18c"},"answer":"X","axis":"Orthogonal-XInside-YFull","clicks":1.5,"condition":"221\n221","correct":1,"explicit":2,"impasse":2,"orth_correct":0,"q":14,"question":"endtime","rt":7350,"session":"16132934","subject":"Q20EE"},{"_id":{"$oid":"619d2c924e895c3605c9a18d"},"answer":"KX","axis":"Orthogonal-XInside-YFull","clicks":2,"condition":"221\n221","correct":1,"explicit":2,"impasse":2,"orth_correct":0,"q":15,"question":"midpoint","rt":16568,"session":"16132934","subject":"Q20EE"},{"_id":{"$oid":"619d2c924e895c3605c9a198"},"answer":"F","axis":"Orthogonal-XInside-YFull","clicks":1,"condition":"321","correct":1,"explicit":3,"impasse":2,"orth_correct":0,"q":1,"question":"starttime","rt":26150,"session":"a15664520","subject":"07MCH"},{"_id":{"$oid":"619d2c924e895c3605c9a199"},"answer":"K","axis":"Orthogonal-XInside-YFull","clicks":1,"condition":"321","correct":1,"explicit":3,"impasse":2,"orth_correct":0,"q":2,"question":"starts","rt":10399,"session":"a15664520","subject":"07MCH"},{"_id":{"$oid":"619d2c924e895c3605c9a19a"},"answer":"F","axis":"Orthogonal-XInside-YFull","clicks":1,"condition":"321","correct":1,"explicit":3,"impasse":2,"orth_correct":0,"q":3,"question":"meets","rt":11149,"session":"a15664520","subject":"07MCH"},{"_id":{"$oid":"619d2c924e895c3605c9a19b"},"answer":"H","axis":"Orthogonal-XInside-YFull","clicks":1,"condition":"321","correct":1,"explicit":3,"impasse":2,"orth_correct":0,"q":4,"question":"endtime","rt":8094,"session":"a15664520","subject":"07MCH"},{"_id":{"$oid":"619d2c924e895c3605c9a19c"},"answer":"A","axis":"Orthogonal-XInside-YFull","clicks":1,"condition":"321","correct":1,"explicit":3,"impasse":2,"orth_correct":0,"q":5,"question":"midpoint","rt":12378,"session":"a15664520","subject":"07MCH"},{"_id":{"$oid":"619d2c924e895c3605c9a19d"},"answer":"EG","axis":"Orthogonal-XInside-YFull","clicks":2,"condition":"321","correct":1,"explicit":3,"impasse":2,"orth_correct":1,"q":6,"question":"duration","rt":7564,"session":"a15664520","subject":"07MCH"},{"_id":{"$oid":"619d2c924e895c3605c9a19e"},"answer":"XO","axis":"Orthogonal-XInside-YFull","clicks":2.5,"condition":"321","correct":1,"explicit":3,"impasse":2,"orth_correct":0,"q":7,"question":"duration+starts","rt":34600,"session":"a15664520","subject":"07MCH"},{"_id":{"$oid":"619d2c924e895c3605c9a19f"},"answer":"G","axis":"Orthogonal-XInside-YFull","clicks":1,"condition":"321","correct":1,"explicit":3,"impasse":2,"orth_correct":0,"q":8,"question":"duration+contained","rt":44439,"session":"a15664520","subject":"07MCH"},{"_id":{"$oid":"619d2c924e895c3605c9a1a0"},"answer":"I","axis":"Orthogonal-XInside-YFull","clicks":1.5,"condition":"321","correct":1,"explicit":3,"impasse":2,"orth_correct":1,"q":9,"question":"starttime+before+endtime+during","rt":50897,"session":"a15664520","subject":"07MCH"},{"_id":{"$oid":"619d2c924e895c3605c9a1a1"},"answer":"E","axis":"Orthogonal-XInside-YFull","clicks":1,"condition":"321","correct":1,"explicit":3,"impasse":2,"orth_correct":0,"q":10,"question":"ends","rt":7269,"session":"a15664520","subject":"07MCH"},{"_id":{"$oid":"619d2c924e895c3605c9a1a2"},"answer":"ML","axis":"Orthogonal-XInside-YFull","clicks":2.5,"condition":"321","correct":1,"explicit":3,"impasse":2,"orth_correct":0,"q":11,"question":"starttime","rt":8857,"session":"a15664520","subject":"07MCH"},{"_id":{"$oid":"619d2c924e895c3605c9a1a3"},"answer":"G","axis":"Orthogonal-XInside-YFull","clicks":1,"condition":"321","correct":1,"explicit":3,"impasse":2,"orth_correct":0,"q":12,"question":"starts","rt":8433,"session":"a15664520","subject":"07MCH"},{"_id":{"$oid":"619d2c924e895c3605c9a1a4"},"answer":"EF","axis":"Orthogonal-XInside-YFull","clicks":2,"condition":"321","correct":1,"explicit":3,"impasse":2,"orth_correct":0,"q":13,"question":"meets","rt":18422,"session":"a15664520","subject":"07MCH"},{"_id":{"$oid":"619d2c924e895c3605c9a1a5"},"answer":"X","axis":"Orthogonal-XInside-YFull","clicks":1,"condition":"321","correct":1,"explicit":3,"impasse":2,"orth_correct":0,"q":14,"question":"endtime","rt":5200,"session":"a15664520","subject":"07MCH"},{"_id":{"$oid":"619d2c924e895c3605c9a1a6"},"answer":"KX","axis":"Orthogonal-XInside-YFull","clicks":2,"condition":"321","correct":1,"explicit":3,"impasse":2,"orth_correct":0,"q":15,"question":"midpoint","rt":14790,"session":"a15664520","subject":"07MCH"},{"_id":{"$oid":"619d2c924e895c3605c9a1b1"},"answer":"CF","axis":"Orthogonal-XInside-YFull","clicks":2,"condition":"221","correct":0,"explicit":2,"impasse":2,"orth_correct":0,"q":1,"question":"starttime","rt":51755,"session":"a15503974","subject":"0C5DM"},{"_id":{"$oid":"619d2c924e895c3605c9a1b2"},"answer":"KE","axis":"Orthogonal-XInside-YFull","clicks":2,"condition":"221","correct":0,"explicit":2,"impasse":2,"orth_correct":0,"q":2,"question":"starts","rt":29251,"session":"a15503974","subject":"0C5DM"},{"_id":{"$oid":"619d2c924e895c3605c9a1b3"},"answer":"F","axis":"Orthogonal-XInside-YFull","clicks":1,"condition":"221","correct":1,"explicit":2,"impasse":2,"orth_correct":0,"q":3,"question":"meets","rt":42721,"session":"a15503974","subject":"0C5DM"},{"_id":{"$oid":"619d2c924e895c3605c9a1b4"},"answer":"H","axis":"Orthogonal-XInside-YFull","clicks":1,"condition":"221","correct":1,"explicit":2,"impasse":2,"orth_correct":0,"q":4,"question":"endtime","rt":30042,"session":"a15503974","subject":"0C5DM"},{"_id":{"$oid":"619d2c924e895c3605c9a1b5"},"answer":"A","axis":"Orthogonal-XInside-YFull","clicks":1.5,"condition":"221","correct":1,"explicit":2,"impasse":2,"orth_correct":0,"q":5,"question":"midpoint","rt":18533,"session":"a15503974","subject":"0C5DM"},{"_id":{"$oid":"619d2c924e895c3605c9a1b6"},"answer":"EG","axis":"Orthogonal-XInside-YFull","clicks":2,"condition":"221","correct":1,"explicit":2,"impasse":2,"orth_correct":1,"q":6,"question":"duration","rt":10954,"session":"a15503974","subject":"0C5DM"},{"_id":{"$oid":"619d2c924e895c3605c9a1b7"},"answer":"XO","axis":"Orthogonal-XInside-YFull","clicks":2,"condition":"221","correct":1,"explicit":2,"impasse":2,"orth_correct":0,"q":7,"question":"duration+starts","rt":38108,"session":"a15503974","subject":"0C5DM"},{"_id":{"$oid":"619d2c924e895c3605c9a1b8"},"answer":"G","axis":"Orthogonal-XInside-YFull","clicks":1,"condition":"221","correct":1,"explicit":2,"impasse":2,"orth_correct":0,"q":8,"question":"duration+contained","rt":85972,"session":"a15503974","subject":"0C5DM"},{"_id":{"$oid":"619d2c924e895c3605c9a1b9"},"answer":"E","axis":"Orthogonal-XInside-YFull","clicks":1,"condition":"221","correct":0,"explicit":2,"impasse":2,"orth_correct":0,"q":9,"question":"starttime+before+endtime+during","rt":41306,"session":"a15503974","subject":"0C5DM"},{"_id":{"$oid":"619d2c924e895c3605c9a1ba"},"answer":"E","axis":"Orthogonal-XInside-YFull","clicks":1,"condition":"221","correct":1,"explicit":2,"impasse":2,"orth_correct":0,"q":10,"question":"ends","rt":12902,"session":"a15503974","subject":"0C5DM"},{"_id":{"$oid":"619d2c924e895c3605c9a1bb"},"answer":"ML","axis":"Orthogonal-XInside-YFull","clicks":2,"condition":"221","correct":1,"explicit":2,"impasse":2,"orth_correct":0,"q":11,"question":"starttime","rt":11314,"session":"a15503974","subject":"0C5DM"},{"_id":{"$oid":"619d2c924e895c3605c9a1bc"},"answer":"G","axis":"Orthogonal-XInside-YFull","clicks":1,"condition":"221","correct":1,"explicit":2,"impasse":2,"orth_correct":0,"q":12,"question":"starts","rt":5448,"session":"a15503974","subject":"0C5DM"},{"_id":{"$oid":"619d2c924e895c3605c9a1bd"},"answer":"EF","axis":"Orthogonal-XInside-YFull","clicks":2,"condition":"221","correct":1,"explicit":2,"impasse":2,"orth_correct":0,"q":13,"question":"meets","rt":81419,"session":"a15503974","subject":"0C5DM"},{"_id":{"$oid":"619d2c924e895c3605c9a1be"},"answer":"X","axis":"Orthogonal-XInside-YFull","clicks":1,"condition":"221","correct":1,"explicit":2,"impasse":2,"orth_correct":0,"q":14,"question":"endtime","rt":14480,"session":"a15503974","subject":"0C5DM"},{"_id":{"$oid":"619d2c924e895c3605c9a1bf"},"answer":"KX","axis":"Orthogonal-XInside-YFull","clicks":2,"condition":"221","correct":1,"explicit":2,"impasse":2,"orth_correct":0,"q":15,"question":"midpoint","rt":9254,"session":"a15503974","subject":"0C5DM"},{"_id":{"$oid":"619d2c924e895c3605c9a1ca"},"answer":"F","axis":"Orthogonal-XInside-YFull","clicks":1.5,"condition":"321","correct":1,"explicit":3,"impasse":2,"orth_correct":0,"q":1,"question":"starttime","rt":38688,"session":"a15928667","subject":"CPRP9"},{"_id":{"$oid":"619d2c924e895c3605c9a1cb"},"answer":"K","axis":"Orthogonal-XInside-YFull","clicks":1,"condition":"321","correct":1,"explicit":3,"impasse":2,"orth_correct":0,"q":2,"question":"starts","rt":16352,"session":"a15928667","subject":"CPRP9"},{"_id":{"$oid":"619d2c924e895c3605c9a1cc"},"answer":"F","axis":"Orthogonal-XInside-YFull","clicks":1,"condition":"321","correct":1,"explicit":3,"impasse":2,"orth_correct":0,"q":3,"question":"meets","rt":13493,"session":"a15928667","subject":"CPRP9"},{"_id":{"$oid":"619d2c924e895c3605c9a1cd"},"answer":"H","axis":"Orthogonal-XInside-YFull","clicks":1,"condition":"321","correct":1,"explicit":3,"impasse":2,"orth_correct":0,"q":4,"question":"endtime","rt":10228,"session":"a15928667","subject":"CPRP9"},{"_id":{"$oid":"619d2c924e895c3605c9a1ce"},"answer":"A","axis":"Orthogonal-XInside-YFull","clicks":1,"condition":"321","correct":1,"explicit":3,"impasse":2,"orth_correct":0,"q":5,"question":"midpoint","rt":47558,"session":"a15928667","subject":"CPRP9"},{"_id":{"$oid":"619d2c924e895c3605c9a1cf"},"answer":"EG","axis":"Orthogonal-XInside-YFull","clicks":2,"condition":"321","correct":1,"explicit":3,"impasse":2,"orth_correct":1,"q":6,"question":"duration","rt":8469,"session":"a15928667","subject":"CPRP9"},{"_id":{"$oid":"619d2c924e895c3605c9a1d0"},"answer":"FB","axis":"Orthogonal-XInside-YFull","clicks":2,"condition":"321","correct":0,"explicit":3,"impasse":2,"orth_correct":1,"q":7,"question":"duration+starts","rt":32075,"session":"a15928667","subject":"CPRP9"},{"_id":{"$oid":"619d2c924e895c3605c9a1d1"},"answer":"J","axis":"Orthogonal-XInside-YFull","clicks":1,"condition":"321","correct":0,"explicit":3,"impasse":2,"orth_correct":0,"q":8,"question":"duration+contained","rt":173353,"session":"a15928667","subject":"CPRP9"},{"_id":{"$oid":"619d2c924e895c3605c9a1d2"},"answer":"I","axis":"Orthogonal-XInside-YFull","clicks":1,"condition":"321","correct":1,"explicit":3,"impasse":2,"orth_correct":1,"q":9,"question":"starttime+before+endtime+during","rt":22490,"session":"a15928667","subject":"CPRP9"},{"_id":{"$oid":"619d2c924e895c3605c9a1d3"},"answer":"B","axis":"Orthogonal-XInside-YFull","clicks":1,"condition":"321","correct":0,"explicit":3,"impasse":2,"orth_correct":0,"q":10,"question":"ends","rt":20386,"session":"a15928667","subject":"CPRP9"},{"_id":{"$oid":"619d2c924e895c3605c9a1d4"},"answer":"M","axis":"Orthogonal-XInside-YFull","clicks":1,"condition":"321","correct":0,"explicit":3,"impasse":2,"orth_correct":0,"q":11,"question":"starttime","rt":6756,"session":"a15928667","subject":"CPRP9"},{"_id":{"$oid":"619d2c924e895c3605c9a1d5"},"answer":"B","axis":"Orthogonal-XInside-YFull","clicks":1,"condition":"321","correct":0,"explicit":3,"impasse":2,"orth_correct":1,"q":12,"question":"starts","rt":12664,"session":"a15928667","subject":"CPRP9"},{"_id":{"$oid":"619d2c924e895c3605c9a1d6"},"answer":"EF","axis":"Orthogonal-XInside-YFull","clicks":2,"condition":"321","correct":1,"explicit":3,"impasse":2,"orth_correct":0,"q":13,"question":"meets","rt":29530,"session":"a15928667","subject":"CPRP9"},{"_id":{"$oid":"619d2c924e895c3605c9a1d7"},"answer":"X","axis":"Orthogonal-XInside-YFull","clicks":1,"condition":"321","correct":1,"explicit":3,"impasse":2,"orth_correct":0,"q":14,"question":"endtime","rt":27937,"session":"a15928667","subject":"CPRP9"},{"_id":{"$oid":"619d2c924e895c3605c9a1d8"},"answer":"X","axis":"Orthogonal-XInside-YFull","clicks":1,"condition":"321","correct":0,"explicit":3,"impasse":2,"orth_correct":0,"q":15,"question":"midpoint","rt":6778,"session":"a15928667","subject":"CPRP9"},{"_id":{"$oid":"619d2c924e895c3605c9a1e3"},"answer":"F","axis":"Orthogonal-XInside-YFull","clicks":1,"condition":"321","correct":1,"explicit":3,"impasse":2,"orth_correct":0,"q":1,"question":"starttime","rt":21554,"session":"a16294943","subject":"E0G9F"},{"_id":{"$oid":"619d2c924e895c3605c9a1e4"},"answer":"K","axis":"Orthogonal-XInside-YFull","clicks":1,"condition":"321","correct":1,"explicit":3,"impasse":2,"orth_correct":0,"q":2,"question":"starts","rt":9139,"session":"a16294943","subject":"E0G9F"},{"_id":{"$oid":"619d2c924e895c3605c9a1e5"},"answer":"B","axis":"Orthogonal-XInside-YFull","clicks":1,"condition":"321","correct":0,"explicit":3,"impasse":2,"orth_correct":0,"q":3,"question":"meets","rt":15765,"session":"a16294943","subject":"E0G9F"},{"_id":{"$oid":"619d2c924e895c3605c9a1e6"},"answer":"B","axis":"Orthogonal-XInside-YFull","clicks":1,"condition":"321","correct":0,"explicit":3,"impasse":2,"orth_correct":0,"q":4,"question":"endtime","rt":10268,"session":"a16294943","subject":"E0G9F"},{"_id":{"$oid":"619d2c924e895c3605c9a1e7"},"answer":"O","axis":"Orthogonal-XInside-YFull","clicks":1,"condition":"321","correct":0,"explicit":3,"impasse":2,"orth_correct":0,"q":5,"question":"midpoint","rt":58097,"session":"a16294943","subject":"E0G9F"},{"_id":{"$oid":"619d2c924e895c3605c9a1e8"},"answer":"EG","axis":"Orthogonal-XInside-YFull","clicks":2,"condition":"321","correct":1,"explicit":3,"impasse":2,"orth_correct":1,"q":6,"question":"duration","rt":24052,"session":"a16294943","subject":"E0G9F"},{"_id":{"$oid":"619d2c924e895c3605c9a1e9"},"answer":"XO","axis":"Orthogonal-XInside-YFull","clicks":2,"condition":"321","correct":1,"explicit":3,"impasse":2,"orth_correct":0,"q":7,"question":"duration+starts","rt":25310,"session":"a16294943","subject":"E0G9F"},{"_id":{"$oid":"619d2c924e895c3605c9a1ea"},"answer":"O","axis":"Orthogonal-XInside-YFull","clicks":1,"condition":"321","correct":0,"explicit":3,"impasse":2,"orth_correct":0,"q":8,"question":"duration+contained","rt":43478,"session":"a16294943","subject":"E0G9F"},{"_id":{"$oid":"619d2c924e895c3605c9a1eb"},"answer":"I","axis":"Orthogonal-XInside-YFull","clicks":1,"condition":"321","correct":1,"explicit":3,"impasse":2,"orth_correct":1,"q":9,"question":"starttime+before+endtime+during","rt":39954,"session":"a16294943","subject":"E0G9F"},{"_id":{"$oid":"619d2c924e895c3605c9a1ec"},"answer":"M","axis":"Orthogonal-XInside-YFull","clicks":1,"condition":"321","correct":0,"explicit":3,"impasse":2,"orth_correct":0,"q":10,"question":"ends","rt":68933,"session":"a16294943","subject":"E0G9F"},{"_id":{"$oid":"619d2c924e895c3605c9a1ed"},"answer":"ML","axis":"Orthogonal-XInside-YFull","clicks":2,"condition":"321","correct":1,"explicit":3,"impasse":2,"orth_correct":0,"q":11,"question":"starttime","rt":10252,"session":"a16294943","subject":"E0G9F"},{"_id":{"$oid":"619d2c924e895c3605c9a1ee"},"answer":"G","axis":"Orthogonal-XInside-YFull","clicks":1,"condition":"321","correct":1,"explicit":3,"impasse":2,"orth_correct":0,"q":12,"question":"starts","rt":10600,"session":"a16294943","subject":"E0G9F"},{"_id":{"$oid":"619d2c924e895c3605c9a1ef"},"answer":"EF","axis":"Orthogonal-XInside-YFull","clicks":2,"condition":"321","correct":1,"explicit":3,"impasse":2,"orth_correct":0,"q":13,"question":"meets","rt":47820,"session":"a16294943","subject":"E0G9F"},{"_id":{"$oid":"619d2c924e895c3605c9a1f0"},"answer":"X","axis":"Orthogonal-XInside-YFull","clicks":1,"condition":"321","correct":1,"explicit":3,"impasse":2,"orth_correct":0,"q":14,"question":"endtime","rt":75760,"session":"a16294943","subject":"E0G9F"},{"_id":{"$oid":"619d2c924e895c3605c9a1f1"},"answer":"EF","axis":"Orthogonal-XInside-YFull","clicks":2,"condition":"321","correct":0,"explicit":3,"impasse":2,"orth_correct":1,"q":15,"question":"midpoint","rt":47913,"session":"a16294943","subject":"E0G9F"},{"_id":{"$oid":"619d2c924e895c3605c9a1fc"},"answer":"A","axis":"Orthogonal-XInside-YFull","clicks":1,"condition":"211","correct":0,"explicit":2,"impasse":1,"orth_correct":1,"q":1,"question":"starttime","rt":23792,"session":"a16622527","subject":"JPZWL"},{"_id":{"$oid":"619d2c924e895c3605c9a1fd"},"answer":"K","axis":"Orthogonal-XInside-YFull","clicks":1,"condition":"211","correct":1,"explicit":2,"impasse":1,"orth_correct":0,"q":2,"question":"starts","rt":34480,"session":"a16622527","subject":"JPZWL"},{"_id":{"$oid":"619d2c924e895c3605c9a1fe"},"answer":"F","axis":"Orthogonal-XInside-YFull","clicks":1,"condition":"211","correct":1,"explicit":2,"impasse":1,"orth_correct":0,"q":3,"question":"meets","rt":16676,"session":"a16622527","subject":"JPZWL"},{"_id":{"$oid":"619d2c924e895c3605c9a1ff"},"answer":"H","axis":"Orthogonal-XInside-YFull","clicks":1,"condition":"211","correct":1,"explicit":2,"impasse":1,"orth_correct":0,"q":4,"question":"endtime","rt":18497,"session":"a16622527","subject":"JPZWL"},{"_id":{"$oid":"619d2c924e895c3605c9a200"},"answer":"O","axis":"Orthogonal-XInside-YFull","clicks":1,"condition":"211","correct":1,"explicit":2,"impasse":1,"orth_correct":0,"q":5,"question":"midpoint","rt":15653,"session":"a16622527","subject":"JPZWL"},{"_id":{"$oid":"619d2c924e895c3605c9a201"},"answer":"EG","axis":"Orthogonal-XInside-YFull","clicks":2,"condition":"211","correct":1,"explicit":2,"impasse":1,"orth_correct":1,"q":6,"question":"duration","rt":10119,"session":"a16622527","subject":"JPZWL"},{"_id":{"$oid":"619d2c924e895c3605c9a202"},"answer":"XO","axis":"Orthogonal-XInside-YFull","clicks":6,"condition":"211","correct":1,"explicit":2,"impasse":1,"orth_correct":0,"q":7,"question":"duration+starts","rt":79382,"session":"a16622527","subject":"JPZWL"},{"_id":{"$oid":"619d2c924e895c3605c9a203"},"answer":"G","axis":"Orthogonal-XInside-YFull","clicks":1,"condition":"211","correct":1,"explicit":2,"impasse":1,"orth_correct":0,"q":8,"question":"duration+contained","rt":25705,"session":"a16622527","subject":"JPZWL"},{"_id":{"$oid":"619d2c924e895c3605c9a204"},"answer":"I","axis":"Orthogonal-XInside-YFull","clicks":1,"condition":"211","correct":1,"explicit":2,"impasse":1,"orth_correct":1,"q":9,"question":"starttime+before+endtime+during","rt":40305,"session":"a16622527","subject":"JPZWL"},{"_id":{"$oid":"619d2c924e895c3605c9a205"},"answer":"E","axis":"Orthogonal-XInside-YFull","clicks":1,"condition":"211","correct":1,"explicit":2,"impasse":1,"orth_correct":0,"q":10,"question":"ends","rt":8121,"session":"a16622527","subject":"JPZWL"},{"_id":{"$oid":"619d2c924e895c3605c9a206"},"answer":"ML","axis":"Orthogonal-XInside-YFull","clicks":2,"condition":"211","correct":1,"explicit":2,"impasse":1,"orth_correct":0,"q":11,"question":"starttime","rt":15825,"session":"a16622527","subject":"JPZWL"},{"_id":{"$oid":"619d2c924e895c3605c9a207"},"answer":"G","axis":"Orthogonal-XInside-YFull","clicks":1,"condition":"211","correct":1,"explicit":2,"impasse":1,"orth_correct":0,"q":12,"question":"starts","rt":8585,"session":"a16622527","subject":"JPZWL"},{"_id":{"$oid":"619d2c924e895c3605c9a208"},"answer":"EF","axis":"Orthogonal-XInside-YFull","clicks":2,"condition":"211","correct":1,"explicit":2,"impasse":1,"orth_correct":0,"q":13,"question":"meets","rt":10957,"session":"a16622527","subject":"JPZWL"},{"_id":{"$oid":"619d2c924e895c3605c9a209"},"answer":"X","axis":"Orthogonal-XInside-YFull","clicks":1.5,"condition":"211","correct":1,"explicit":2,"impasse":1,"orth_correct":0,"q":14,"question":"endtime","rt":8250,"session":"a16622527","subject":"JPZWL"},{"_id":{"$oid":"619d2c924e895c3605c9a20a"},"answer":"KX","axis":"Orthogonal-XInside-YFull","clicks":2,"condition":"211","correct":1,"explicit":2,"impasse":1,"orth_correct":0,"q":15,"question":"midpoint","rt":15814,"session":"a16622527","subject":"JPZWL"},{"_id":{"$oid":"619d2c924e895c3605c9a22e"},"answer":"F","axis":"Orthogonal-XInside-YFull","clicks":1,"condition":"221\n221","correct":1,"explicit":2,"impasse":2,"orth_correct":0,"q":1,"question":"starttime","rt":37840,"session":"a15644634","subject":"SGEJ0"},{"_id":{"$oid":"619d2c924e895c3605c9a22f"},"answer":"K","axis":"Orthogonal-XInside-YFull","clicks":1,"condition":"221\n221","correct":1,"explicit":2,"impasse":2,"orth_correct":0,"q":2,"question":"starts","rt":32139,"session":"a15644634","subject":"SGEJ0"},{"_id":{"$oid":"619d2c924e895c3605c9a230"},"answer":"F","axis":"Orthogonal-XInside-YFull","clicks":1,"condition":"221\n221","correct":1,"explicit":2,"impasse":2,"orth_correct":0,"q":3,"question":"meets","rt":21720,"session":"a15644634","subject":"SGEJ0"},{"_id":{"$oid":"619d2c924e895c3605c9a231"},"answer":"H","axis":"Orthogonal-XInside-YFull","clicks":1,"condition":"221\n221","correct":1,"explicit":2,"impasse":2,"orth_correct":0,"q":4,"question":"endtime","rt":18134,"session":"a15644634","subject":"SGEJ0"},{"_id":{"$oid":"619d2c924e895c3605c9a232"},"answer":"A","axis":"Orthogonal-XInside-YFull","clicks":1,"condition":"221\n221","correct":1,"explicit":2,"impasse":2,"orth_correct":0,"q":5,"question":"midpoint","rt":21107,"session":"a15644634","subject":"SGEJ0"},{"_id":{"$oid":"619d2c924e895c3605c9a233"},"answer":"EG","axis":"Orthogonal-XInside-YFull","clicks":2,"condition":"221\n221","correct":1,"explicit":2,"impasse":2,"orth_correct":1,"q":6,"question":"duration","rt":8352,"session":"a15644634","subject":"SGEJ0"},{"_id":{"$oid":"619d2c924e895c3605c9a234"},"answer":"XO","axis":"Orthogonal-XInside-YFull","clicks":2.5,"condition":"221\n221","correct":1,"explicit":2,"impasse":2,"orth_correct":0,"q":7,"question":"duration+starts","rt":15120,"session":"a15644634","subject":"SGEJ0"},{"_id":{"$oid":"619d2c924e895c3605c9a235"},"answer":"G","axis":"Orthogonal-XInside-YFull","clicks":1,"condition":"221\n221","correct":1,"explicit":2,"impasse":2,"orth_correct":0,"q":8,"question":"duration+contained","rt":73291,"session":"a15644634","subject":"SGEJ0"},{"_id":{"$oid":"619d2c924e895c3605c9a236"},"answer":"I","axis":"Orthogonal-XInside-YFull","clicks":1,"condition":"221\n221","correct":1,"explicit":2,"impasse":2,"orth_correct":1,"q":9,"question":"starttime+before+endtime+during","rt":40237,"session":"a15644634","subject":"SGEJ0"},{"_id":{"$oid":"619d2c924e895c3605c9a237"},"answer":"E","axis":"Orthogonal-XInside-YFull","clicks":1.5,"condition":"221\n221","correct":1,"explicit":2,"impasse":2,"orth_correct":0,"q":10,"question":"ends","rt":17359,"session":"a15644634","subject":"SGEJ0"},{"_id":{"$oid":"619d2c924e895c3605c9a238"},"answer":"ML","axis":"Orthogonal-XInside-YFull","clicks":2.5,"condition":"221\n221","correct":1,"explicit":2,"impasse":2,"orth_correct":0,"q":11,"question":"starttime","rt":14556,"session":"a15644634","subject":"SGEJ0"},{"_id":{"$oid":"619d2c924e895c3605c9a239"},"answer":"G","axis":"Orthogonal-XInside-YFull","clicks":1.5,"condition":"221\n221","correct":1,"explicit":2,"impasse":2,"orth_correct":0,"q":12,"question":"starts","rt":9067,"session":"a15644634","subject":"SGEJ0"},{"_id":{"$oid":"619d2c924e895c3605c9a23a"},"answer":"EF","axis":"Orthogonal-XInside-YFull","clicks":2,"condition":"221\n221","correct":1,"explicit":2,"impasse":2,"orth_correct":0,"q":13,"question":"meets","rt":16862,"session":"a15644634","subject":"SGEJ0"},{"_id":{"$oid":"619d2c924e895c3605c9a23b"},"answer":"X","axis":"Orthogonal-XInside-YFull","clicks":1,"condition":"221\n221","correct":1,"explicit":2,"impasse":2,"orth_correct":0,"q":14,"question":"endtime","rt":11413,"session":"a15644634","subject":"SGEJ0"},{"_id":{"$oid":"619d2c924e895c3605c9a23c"},"answer":"KX","axis":"Orthogonal-XInside-YFull","clicks":2.5,"condition":"221\n221","correct":1,"explicit":2,"impasse":2,"orth_correct":0,"q":15,"question":"midpoint","rt":36477,"session":"a15644634","subject":"SGEJ0"},{"_id":{"$oid":"619d2c924e895c3605c9a247"},"answer":"F","axis":"Orthogonal-XInside-YFull","clicks":1.5,"condition":"221","correct":1,"explicit":2,"impasse":2,"orth_correct":0,"q":1,"question":"starttime","rt":67865,"session":"a15564584","subject":"GXWDP"},{"_id":{"$oid":"619d2c924e895c3605c9a248"},"answer":"K","axis":"Orthogonal-XInside-YFull","clicks":1,"condition":"221","correct":1,"explicit":2,"impasse":2,"orth_correct":0,"q":2,"question":"starts","rt":8630,"session":"a15564584","