[{"_id":{"$oid":"61f34674f32bcfe23f6ee2ec"},"answer":"the positively sloped lines indicate when shifts start. Find 12 pm and follow the positive sloped line up to the event point(s).","block":"triangular_testing","condition":"211","experiment":"2YP3","graph":"triangular","internal_node_id":"0.0-9.0-0.0","q":16,"rt":66538,"session":"a16308330","subject":"WLO69","time_elapsed":741140,"trial_index":22,"trial_type":"html","url":"../views/src/external/stimulus.html"},{"_id":{"$oid":"61f34674f32bcfe23f6ee305"},"answer":"To determine which events start at 12 pm, go to the x axis, and follow the lines that lean toward the right. If an event (or shift) is on that same line, then it must start at 12 pm.","block":"triangular_testing","condition":"121\n121","experiment":"2YP3","graph":"triangular","internal_node_id":"0.0-9.0-0.0","q":16,"rt":114012,"session":"a1677674","subject":"63VL0","time_elapsed":885253,"trial_index":22,"trial_type":"html","url":"../views/src/external/stimulus.html"},{"_id":{"$oid":"61f34674f32bcfe23f6ee31e"},"answer":"take 12 pm spot on x-axis as the left bottom mark as a triangle which has the shift name as the top mark.","block":"triangular_testing","condition":"221","experiment":"2YP3","graph":"triangular","internal_node_id":"0.0-9.0-0.0","q":16,"rt":75896,"session":"a16348482","subject":"LZSME","time_elapsed":2055459,"trial_index":22,"trial_type":"html","url":"../views/src/external/stimulus.html"},{"_id":{"$oid":"61f34674f32bcfe23f6ee337"},"answer":"there are two lines starting at certain times, the one shooting to the right will meet some lines shooting to the left, when there is an event at their intersection, that event starts at 12pm","block":"triangular_testing","condition":"221","experiment":"2YP3","graph":"triangular","internal_node_id":"0.0-9.0-0.0","q":16,"rt":266019,"session":"a16128348","subject":"YRELO","time_elapsed":677849,"trial_index":22,"trial_type":"html","url":"../views/src/external/stimulus.html"},{"_id":{"$oid":"61f34674f32bcfe23f6ee350"},"answer":"Look at 12pm on the time axis, and look at the line pointing diagonally to the right from 12. You will find M and L along this line, therefore they begin at 12. ","block":"triangular_testing","condition":"211","experiment":"2YP3","graph":"triangular","internal_node_id":"0.0-9.0-0.0","q":16,"rt":46054,"session":"a15769204","subject":"47SB1","time_elapsed":393624,"trial_index":22,"trial_type":"html","url":"../views/src/external/stimulus.html"},{"_id":{"$oid":"61f34674f32bcfe23f6ee3b4"},"answer":"I begin with looking at the Horizontal axis (Start & end time) and go up from there ","block":"triangular_testing","condition":"311","experiment":"2YP3","graph":"triangular","internal_node_id":"0.0-9.0-0.0","q":16,"rt":51771,"session":"a13190800","subject":"TE7JZ","time_elapsed":2841539,"trial_index":22,"trial_type":"html","url":"../views/src/external/stimulus.html"},{"_id":{"$oid":"61f34674f32bcfe23f6ee3cd"},"answer":"I find 12pm on the X axis, then I take the diagonal on the right and follow it until I find dots M and L.","block":"triangular_testing","condition":"111","experiment":"2YP3","graph":"triangular","internal_node_id":"0.0-9.0-0.0","q":16,"rt":83496,"session":"hollanlab","subject":"5N035","time_elapsed":19949428,"trial_index":22,"trial_type":"html","url":"../views/src/external/stimulus.html"},{"_id":{"$oid":"61f34674f32bcfe23f6ee3e6"},"answer":"Start on x axis, move right until 12pm, then go up on the line segment that starts at 12pm and goes up to the right (towards M), continue until end of line. M & L both start at 12pm because they both lay on the line up and right starting at 12pm.","block":"triangular_testing","condition":"221","experiment":"2YP3","graph":"triangular","internal_node_id":"0.0-9.0-0.0","q":16,"rt":66393,"session":"a16031916","subject":"UDSVX","time_elapsed":400576,"trial_index":22,"trial_type":"html","url":"../views/src/external/stimulus.html"},{"_id":{"$oid":"61f34674f32bcfe23f6ee3ff"},"answer":"go to 12 pm on the x axis and then move up the line towards the right till you see dots of the events","block":"triangular_testing","condition":"221","experiment":"2YP3","graph":"triangular","internal_node_id":"0.0-9.0-0.0","q":16,"rt":27514,"session":"a15435687","subject":"1H0SY","time_elapsed":472809,"trial_index":22,"trial_type":"html","url":"../views/src/external/stimulus.html"},{"_id":{"$oid":"61f34674f32bcfe23f6ee418"},"answer":"On the X axis of the graph, the start of a shift is marked by the left side of a triangle formed by the 2 lines that emerge below each shift's dot on the graph","block":"triangular_testing","condition":"121","experiment":"2YP3","graph":"triangular","internal_node_id":"0.0-9.0-0.0","q":16,"rt":81749,"session":"a15673149","subject":"1SY41","time_elapsed":1245146,"trial_index":22,"trial_type":"html","url":"../views/src/external/stimulus.html"},{"_id":{"$oid":"61f34674f32bcfe23f6ee431"},"answer":"find 12 on x axis follow diagonal line to the right","block":"triangular_testing","condition":"321","experiment":"2YP3","graph":"triangular","internal_node_id":"0.0-9.0-0.0","q":16,"rt":24765,"session":"a15458549","subject":"DGVGP","time_elapsed":498170,"trial_index":22,"trial_type":"html","url":"../views/src/external/stimulus.html"},{"_id":{"$oid":"61f34674f32bcfe23f6ee44a"},"answer":"be","block":"triangular_testing","condition":"321","experiment":"2YP3","graph":"triangular","internal_node_id":"0.0-9.0-0.0","q":16,"rt":12946,"session":"a15839275","subject":"9PELV","time_elapsed":3607558,"trial_index":22,"trial_type":"html","url":"../views/src/external/stimulus.html"},{"_id":{"$oid":"61f34674f32bcfe23f6ee463"},"answer":"1. FIND 12 PM; 2. FOLLOW THE RIGHT, DIAGONAL LINE UP; 3. THESE SHIFTS START AT 12: M, L ","block":"triangular_testing","condition":"221\n221","experiment":"2YP3","graph":"triangular","internal_node_id":"0.0-9.0-0.0","q":16,"rt":45018,"session":"16132934","subject":"Q20EE","time_elapsed":439075,"trial_index":22,"trial_type":"html","url":"../views/src/external/stimulus.html"},{"_id":{"$oid":"61f34674f32bcfe23f6ee47c"},"answer":"You look at the x coordinate of the graph, start & and time, look for 12pm once you have located 12pm you move diagonally to the right moving upwards and search for the letters on that line when moving diagonally","block":"triangular_testing","condition":"211","experiment":"2YP3","graph":"triangular","internal_node_id":"0.0-9.0-0.0","q":16,"rt":123608,"session":"a15960387","subject":"SQ3V5","time_elapsed":1270077,"trial_index":22,"trial_type":"html","url":"../views/src/external/stimulus.html"},{"_id":{"$oid":"61f34674f32bcfe23f6ee495"},"answer":"1) Find 12pm on the horizontal axis 2) look at the diagonal line that starts from the 12pm point on the horizontal axis and that goes upwards to the right 3) the lines that lay on that diagonal line are the events that start at 12pm - in this case it's M and L","block":"triangular_testing","condition":"321","experiment":"2YP3","graph":"triangular","internal_node_id":"0.0-9.0-0.0","q":16,"rt":124831,"session":"a15378348","subject":"ZV99C","time_elapsed":815002,"trial_index":22,"trial_type":"html","url":"../views/src/external/stimulus.html"},{"_id":{"$oid":"61f34674f32bcfe23f6ee4ae"},"answer":"start at 12pm on the x axis, take the northeast line and identify all the points along that line","block":"triangular_testing","condition":"321","experiment":"2YP3","graph":"triangular","internal_node_id":"0.0-9.0-0.0","q":16,"rt":40771,"session":"a15664520","subject":"07MCH","time_elapsed":414317,"trial_index":22,"trial_type":"html","url":"../views/src/external/stimulus.html"},{"_id":{"$oid":"61f34674f32bcfe23f6ee4e0"},"answer":"I lI look at the x-axis (time of day), locate where 12 PM is and follow the diagonal line that slants to the right, locating any points along that line.","block":"triangular_testing","condition":"211","experiment":"2YP3","graph":"triangular","internal_node_id":"0.0-9.0-0.0","q":16,"rt":71025,"session":"a16622527","subject":"JPZWL","time_elapsed":501678,"trial_index":22,"trial_type":"html","url":"../views/src/external/stimulus.html"},{"_id":{"$oid":"61f34674f32bcfe23f6ee4f9"},"answer":"Find 12 pm on the x axis and then follow the diagonal line upwards and rightwards\n","block":"triangular_testing","condition":"321","experiment":"2YP3","graph":"triangular","internal_node_id":"0.0-9.0-0.0","q":16,"rt":41533,"session":"a16294943","subject":"E0G9F","time_elapsed":707717,"trial_index":22,"trial_type":"html","url":"../views/src/external/stimulus.html"},{"_id":{"$oid":"61f34674f32bcfe23f6ee512"},"answer":"Follow the line to the left of 12 pm and see if there are any dots on it.","block":"triangular_testing","condition":"321","experiment":"2YP3","graph":"triangular","internal_node_id":"0.0-9.0-0.0","q":16,"rt":73076,"session":"a15928667","subject":"CPRP9","time_elapsed":881021,"trial_index":22,"trial_type":"html","url":"../views/src/external/stimulus.html"},{"_id":{"$oid":"61f34674f32bcfe23f6ee52b"},"answer":"you go to 12 pm and then go diagonally right the whole time ","block":"triangular_testing","condition":"321","experiment":"2YP3","graph":"triangular","internal_node_id":"0.0-9.0-0.0","q":16,"rt":34748,"session":"a15543958","subject":"FW9D5","time_elapsed":487740,"trial_index":22,"trial_type":"html","url":"../views/src/external/stimulus.html"},{"_id":{"$oid":"61f34674f32bcfe23f6ee544"},"answer":"YoYou look at where the 12 is on the x axis and trace the line up that is pointed more right","block":"triangular_testing","condition":"221","experiment":"2YP3","graph":"triangular","internal_node_id":"0.0-9.0-0.0","q":16,"rt":72512,"session":"a15503974","subject":"0C5DM","time_elapsed":648891,"trial_index":22,"trial_type":"html","url":"../views/src/external/stimulus.html"},{"_id":{"$oid":"61f34674f32bcfe23f6ee55d"},"answer":"First locate 12pm on the x-axis the follow the diagonal to the right of it. Any event starting at that time will be along that line.","block":"triangular_testing","condition":"311","experiment":"2YP3","graph":"triangular","internal_node_id":"0.0-9.0-0.0","q":16,"rt":68105,"session":"a15815721","subject":"7K6V3","time_elapsed":582810,"trial_index":22,"trial_type":"html","url":"../views/src/external/stimulus.html"},{"_id":{"$oid":"61f34674f32bcfe23f6ee576"},"answer":"go to the 12 pm mark on horizontal axis, follow diagonal up towards right, any points on that line segment would be the shifts starting at 12pm","block":"triangular_testing","condition":"221\n221","experiment":"2YP3","graph":"triangular","internal_node_id":"0.0-9.0-0.0","q":16,"rt":78860,"session":"a15644634","subject":"SGEJ0","time_elapsed":685233,"trial_index":22,"trial_type":"html","url":"../views/src/external/stimulus.html"},{"_id":{"$oid":"61f34674f32bcfe23f6ee58f"},"answer":"look at 12pm on x axis and follow line going up and to the right. Everything on that line starts at 12pm","block":"triangular_testing","condition":"111","experiment":"2YP3","graph":"triangular","internal_node_id":"0.0-9.0-0.0","q":16,"rt":49342,"session":"a16143137","subject":"LNVKO","time_elapsed":511343,"trial_index":22,"trial_type":"html","url":"../views/src/external/stimulus.html"},{"_id":{"$oid":"61f34674f32bcfe23f6ee5a8"},"answer":"whichever line veering right starting at the 12pm point is the starting line, so anything plotted along that right leaning line starts at 12pm. ","block":"triangular_testing","condition":"221","experiment":"2YP3","graph":"triangular","internal_node_id":"0.0-9.0-0.0","q":16,"rt":75846,"session":"a15564584","subject":"GXWDP","time_elapsed":967726,"trial_index":22,"trial_type":"html","url":"../views/src/external/stimulus.html"},{"_id":{"$oid":"61f34674f32bcfe23f6ee5c1"},"answer":"Follow the line up and right that, 12pm to see what shifts are there","block":"triangular_testing","condition":"211","experiment":"2YP3","graph":"triangular","internal_node_id":"0.0-9.0-0.0","q":16,"rt":136888,"session":"a15505662","subject":"LCFZM","time_elapsed":938899,"trial_index":22,"trial_type":"html","url":"../views/src/external/stimulus.html"},{"_id":{"$oid":"61f34674f32bcfe23f6ee5da"},"answer":"Go to 12pm on the x-axis and go upward to the right and see what points are on that diagonal line","block":"triangular_testing","condition":"221","experiment":"2YP3","graph":"triangular","internal_node_id":"0.0-9.0-0.0","q":16,"rt":75844,"session":"a15583685","subject":"KFXNR","time_elapsed":987587,"trial_index":22,"trial_type":"html","url":"../views/src/external/stimulus.html"},{"_id":{"$oid":"61f34674f32bcfe23f6ee5f3"},"answer":"The diagonal line from 12pm to the 8 hour duration line","block":"triangular_testing","condition":"221","experiment":"2YP3","graph":"triangular","internal_node_id":"0.0-9.0-0.0","q":16,"rt":44328,"session":"a15578823","subject":"U794E","time_elapsed":618851,"trial_index":22,"trial_type":"html","url":"../views/src/external/stimulus.html"},{"_id":{"$oid":"61f34674f32bcfe23f6ee60c"},"answer":"To determine what events start at 12 PM you go to the x axis that says 12 PM and you look at the right and left branches it has. This tells us that M and L both start at 12 PM even though they have different shift durations ","block":"triangular_testing","condition":"121","experiment":"2YP3","graph":"triangular","internal_node_id":"0.0-9.0-0.0","q":16,"rt":60457,"session":"a15428617","subject":"OUCFL","time_elapsed":656693,"trial_index":22,"trial_type":"html","url":"../views/src/external/stimulus.html"},{"_id":{"$oid":"61f34674f32bcfe23f6ee626"},"answer":"Using the right most diagonal line that starts at 12pm.","block":"triangular_testing","condition":"221","experiment":"2YP3","graph":"triangular","internal_node_id":"0.0-9.0-0.0","q":16,"rt":34614,"session":"a15588293","subject":"B0QF0","time_elapsed":425648,"trial_index":22,"trial_type":"html","url":"../views/src/external/stimulus.html"},{"_id":{"$oid":"61f34674f32bcfe23f6ee63f"},"answer":"gp to 12pm on the bottom of the graph and then trace up until you land on a dot","block":"triangular_testing","condition":"311","experiment":"2YP3","graph":"triangular","internal_node_id":"0.0-9.0-0.0","q":16,"rt":40051,"session":"a15504468","subject":"US1HX","time_elapsed":862312,"trial_index":22,"trial_type":"html","url":"../views/src/external/stimulus.html"},{"_id":{"$oid":"61f34674f32bcfe23f6ee658"},"answer":"follow the diagonal line","block":"triangular_testing","condition":"221","experiment":"2YP3","graph":"triangular","internal_node_id":"0.0-9.0-0.0","q":16,"rt":15579,"session":"a16176734","subject":"RRQXQ","time_elapsed":442355,"trial_index":22,"trial_type":"html","url":"../views/src/external/stimulus.html"},{"_id":{"$oid":"61f34674f32bcfe23f6ee671"},"answer":"I pick the letter closest to 12 PM on the graph","block":"triangular_testing","condition":"121","experiment":"2YP3","graph":"triangular","internal_node_id":"0.0-9.0-0.0","q":16,"rt":34947,"session":"a16577976","subject":"KT7ZF","time_elapsed":647232,"trial_index":22,"trial_type":"html","url":"../views/src/external/stimulus.html"},{"_id":{"$oid":"61f34674f32bcfe23f6ee68b"},"answer":"Locate 12 PM on the X-axis, then follow the diagonal line going upward-left. All points along that line start at 12 PM.","block":"triangular_testing","condition":"211","experiment":"2YP3","graph":"triangular","internal_node_id":"0.0-9.0-0.0","q":16,"rt":98391,"session":"a16623408","subject":"P1STY","time_elapsed":740649,"trial_index":22,"trial_type":"html","url":"../views/src/external/stimulus.html"},{"_id":{"$oid":"61f34674f32bcfe23f6ee6a4"},"answer":"LooLook at the X axis to where 12 pm is and then go up the y axis to determine which dots are marked. ","block":"triangular_testing","condition":"111","experiment":"2YP3","graph":"triangular","internal_node_id":"0.0-9.0-0.0","q":16,"rt":49604,"session":"a17213518\na17213518","subject":"WWMDF","time_elapsed":838353,"trial_index":22,"trial_type":"html","url":"../views/src/external/stimulus.html"},{"_id":{"$oid":"61f34674f32bcfe23f6ee6be"},"answer":"look at the dot and subtract the hours on the left by the time on the bottom","block":"triangular_testing","condition":"121","experiment":"2YP3","graph":"triangular","internal_node_id":"0.0-9.0-0.0","q":16,"rt":23859,"session":"a15515318\na15515318","subject":"ACEXT","time_elapsed":947995,"trial_index":22,"trial_type":"html","url":"../views/src/external/stimulus.html"},{"_id":{"$oid":"61f34674f32bcfe23f6ee6d8"},"answer":"Look at the X-axis for the dots corresponding with the time at 12","block":"triangular_testing","condition":"121","experiment":"2YP3","graph":"triangular","internal_node_id":"0.0-9.0-0.0","q":16,"rt":30404,"session":"a16561685","subject":"ALN2P","time_elapsed":614198,"trial_index":22,"trial_type":"html","url":"../views/src/external/stimulus.html"},{"_id":{"$oid":"61f34674f32bcfe23f6ee6f2"},"answer":"You can determine what event(s) start at 12pm by first looking at the times at the bottom of the chart. From there you can go upward from 12 and see what dots align.","block":"triangular_testing","condition":"111","experiment":"2YP3","graph":"triangular","internal_node_id":"0.0-9.0-0.0","q":16,"rt":40000,"session":"a15428815","subject":"TD0NU","time_elapsed":584711,"trial_index":22,"trial_type":"html","url":"../views/src/external/stimulus.html"},{"_id":{"$oid":"61f34674f32bcfe23f6ee70c"},"answer":"I find 12pm on the horizontal axis and then follow the line that extends from 12pm to the upper right corner of the graph. In this case, M and L start at 12pm.","block":"triangular_testing","condition":"121","experiment":"2YP3","graph":"triangular","internal_node_id":"0.0-9.0-0.0","q":16,"rt":64935,"session":"a17236014","subject":"Q7A44","time_elapsed":983485,"trial_index":22,"trial_type":"html","url":"../views/src/external/stimulus.html"},{"_id":{"$oid":"61f34674f32bcfe23f6ee726"},"answer":"Find 12PM on the bottom axis and follow the diagonal line up and to the right, anything on that line starts at 12PM.","block":"triangular_testing","condition":"221","experiment":"2YP3","graph":"triangular","internal_node_id":"0.0-9.0-0.0","q":16,"rt":42677,"session":"a15462161","subject":"XZ05Q","time_elapsed":618089,"trial_index":22,"trial_type":"html","url":"../views/src/external/stimulus.html"},{"_id":{"$oid":"61f34674f32bcfe23f6ee73f"},"answer":"Find 12 PM on the x-axis. Trace a vertical line upwards from the 12 PM on the x-axis. All the points on that line begin at 12pm.","block":"triangular_testing","condition":"121","experiment":"2YP3","graph":"triangular","internal_node_id":"0.0-9.0-0.0","q":16,"rt":106930,"session":"a15882706","subject":"5TMTW","time_elapsed":742363,"trial_index":22,"trial_type":"html","url":"../views/src/external/stimulus.html"},{"_id":{"$oid":"61f34674f32bcfe23f6ee759"},"answer":"Drawing a line straight up from the x axis and the given time","block":"triangular_testing","condition":"121","experiment":"2YP3","graph":"triangular","internal_node_id":"0.0-9.0-0.0","q":16,"rt":36067,"session":"a16843950","subject":"QOR74","time_elapsed":754030,"trial_index":22,"trial_type":"html","url":"../views/src/external/stimulus.html"},{"_id":{"$oid":"61f34674f32bcfe23f6ee773"},"answer":"Which events start at the line angles up to the right at the number 12 on the x-axis start at 12 pm. ","block":"triangular_testing","condition":"111","experiment":"2YP3","graph":"triangular","internal_node_id":"0.0-9.0-0.0","q":16,"rt":43344,"session":"a16797648","subject":"431GR","time_elapsed":557465,"trial_index":22,"trial_type":"html","url":"../views/src/external/stimulus.html"},{"_id":{"$oid":"61f34674f32bcfe23f6ee78d"},"answer":"draw a vertical line up from 12PM","block":"triangular_testing","condition":"121","experiment":"2YP3","graph":"triangular","internal_node_id":"0.0-9.0-0.0","q":16,"rt":33561,"session":"a15481598","subject":"HUNJ8","time_elapsed":509051,"trial_index":22,"trial_type":"html","url":"../views/src/external/stimulus.html"},{"_id":{"$oid":"61f34674f32bcfe23f6ee7a7"},"answer":"The shifts that line up above 12pm on the x axis","block":"triangular_testing","condition":"111","experiment":"2YP3","graph":"triangular","internal_node_id":"0.0-9.0-0.0","q":16,"rt":45527,"session":"a16121250","subject":"SGTQJ","time_elapsed":466658,"trial_index":22,"trial_type":"html","url":"../views/src/external/stimulus.html"},{"_id":{"$oid":"61f34674f32bcfe23f6ee7c1"},"answer":"look at the 12 pm dash and look up","block":"triangular_testing","condition":"121","experiment":"2YP3","graph":"triangular","internal_node_id":"0.0-9.0-0.0","q":16,"rt":18911,"session":"a15407629","subject":"QVWU9","time_elapsed":382976,"trial_index":22,"trial_type":"html","url":"../views/src/external/stimulus.html"},{"_id":{"$oid":"61f34674f32bcfe23f6ee7db"},"answer":"To find what event(s) start at 12pm, find it on the x-axis, where time of day is located and follow the line in the diagram all the way up. You will find that M and L start at 12 but end at different times. ","block":"triangular_testing","condition":"121","experiment":"2YP3","graph":"triangular","internal_node_id":"0.0-9.0-0.0","q":16,"rt":105809,"session":"a16328170\na16328170","subject":"YAZM5","time_elapsed":1168112,"trial_index":22,"trial_type":"html","url":"../views/src/external/stimulus.html"},{"_id":{"$oid":"61f34674f32bcfe23f6ee7f5"},"answer":"At 12 pm B and F start shifts and J ends their shift.","block":"triangular_testing","condition":"111","experiment":"2YP3","graph":"triangular","internal_node_id":"0.0-9.0-0.0","q":16,"rt":53073,"session":"a16333285","subject":"ZL796","time_elapsed":692483,"trial_index":22,"trial_type":"html","url":"../views/src/external/stimulus.html"},{"_id":{"$oid":"61f34674f32bcfe23f6ee80f"},"answer":"SShifts B and G start at 12 pm","block":"triangular_testing","condition":"121","experiment":"2YP3","graph":"triangular","internal_node_id":"0.0-9.0-0.0","q":16,"rt":31335,"session":"a15461540","subject":"P83KE","time_elapsed":780054,"trial_index":22,"trial_type":"html","url":"../views/src/external/stimulus.html"},{"_id":{"$oid":"61f34674f32bcfe23f6ee85d"},"answer":"find 12 on the bottom and then climb diagonally to the right, so the shifts starting at 12 would be M and L ","block":"triangular_testing","condition":"121","experiment":"2YP3","graph":"triangular","internal_node_id":"0.0-9.0-0.0","q":16,"rt":42737,"session":"a16524240","subject":"57KJC","time_elapsed":507342,"trial_index":22,"trial_type":"html","url":"../views/src/external/stimulus.html"},{"_id":{"$oid":"61f34674f32bcfe23f6ee877"},"answer":"follow the 12 pm line that goes up towards the right. any points on that line starts at 12","block":"triangular_testing","condition":"121","experiment":"2YP3","graph":"triangular","internal_node_id":"0.0-9.0-0.0","q":16,"rt":27504,"session":"16114839","subject":"8DL90","time_elapsed":174531,"trial_index":22,"trial_type":"html","url":"../views/src/external/stimulus.html"},{"_id":{"$oid":"61f34674f32bcfe23f6ee8ab"},"answer":"vertical dots\n","block":"triangular_testing","condition":"111","experiment":"2YP3","graph":"triangular","internal_node_id":"0.0-9.0-0.0","q":16,"rt":10982,"session":"15862635","subject":"YK2A6","time_elapsed":356059,"trial_index":22,"trial_type":"html","url":"../views/src/external/stimulus.html"},{"_id":{"$oid":"61f34674f32bcfe23f6ee8c5"},"answer":"I Look at the line and go up to see which aligns with the 12 pm mark","block":"triangular_testing","condition":"121","experiment":"2YP3","graph":"triangular","internal_node_id":"0.0-9.0-0.0","q":16,"rt":31502,"session":"a15977973","subject":"ECJQV","time_elapsed":258626,"trial_index":22,"trial_type":"html","url":"../views/src/external/stimulus.html"},{"_id":{"$oid":"61f34674f32bcfe23f6ee8df"},"answer":"Look at the x axis","block":"triangular_testing","condition":"121","experiment":"2YP3","graph":"triangular","internal_node_id":"0.0-9.0-0.0","q":16,"rt":8563,"session":"a16583212","subject":"LS93R","time_elapsed":365564,"trial_index":22,"trial_type":"html","url":"../views/src/external/stimulus.html"},{"_id":{"$oid":"61f34674f32bcfe23f6ee8f9"},"answer":"yyou have to look at the x axis of this graph and find where 12pm is. then you follow that point up the diagonal line until you hit a letter or letters. thoes letters or letter are the shifts or shift that starts at 12 pm","block":"triangular_testing","condition":"121","experiment":"2YP3","graph":"triangular","internal_node_id":"0.0-9.0-0.0","q":16,"rt":81648,"session":"a15857484","subject":"0YVPY","time_elapsed":717521,"trial_index":22,"trial_type":"html","url":"../views/src/external/stimulus.html"},{"_id":{"$oid":"61f34674f32bcfe23f6ee913"},"answer":"draw a vertical line from the 12 pm point and look at which events have start points that intersect with the line. In this case, B and F.\n","block":"triangular_testing","condition":"121","experiment":"2YP3","graph":"triangular","internal_node_id":"0.0-9.0-0.0","q":16,"rt":84236,"session":"a15992567","subject":"QNNZZ","time_elapsed":862798,"trial_index":22,"trial_type":"html","url":"../views/src/external/stimulus.html"},{"_id":{"$oid":"61f34674f32bcfe23f6ee92d"},"answer":"If the data point is line up with 12 pm on the x axis, that is when it starts","block":"triangular_testing","condition":"121","experiment":"2YP3","graph":"triangular","internal_node_id":"0.0-9.0-0.0","q":16,"rt":59515,"session":"a15449379","subject":"G17YM","time_elapsed":613843,"trial_index":22,"trial_type":"html","url":"../views/src/external/stimulus.html"},{"_id":{"$oid":"61f34674f32bcfe23f6ee97b"},"answer":"use the graph, find 12 on the x axis and go up","block":"triangular_testing","condition":"121","experiment":"2YP3","graph":"triangular","internal_node_id":"0.0-9.0-0.0","q":16,"rt":33291,"session":"a16811213","subject":"K3AE8","time_elapsed":1271358,"trial_index":22,"trial_type":"html","url":"../views/src/external/stimulus.html"},{"_id":{"$oid":"61f34674f32bcfe23f6ee9fd"},"answer":"loolook at 12 pm on the x axis then move in a straight line upwards until coming to a dot","block":"triangular_testing","condition":"111","experiment":"2YP3","graph":"triangular","internal_node_id":"0.0-9.0-0.0","q":16,"rt":31606,"session":"a16254358","subject":"A9JCU","time_elapsed":646950,"trial_index":22,"trial_type":"html","url":"../views/src/external/stimulus.html"},{"_id":{"$oid":"61f34674f32bcfe23f6eea17"},"answer":"I look at the x axis, go to the 12pm time, and move up the graph. ","block":"triangular_testing","condition":"121","experiment":"2YP3","graph":"triangular","internal_node_id":"0.0-9.0-0.0","q":16,"rt":25899,"session":"a16622681","subject":"BR500","time_elapsed":484062,"trial_index":22,"trial_type":"html","url":"../views/src/external/stimulus.html"},{"_id":{"$oid":"61f34674f32bcfe23f6eea31"},"answer":"Shifts that start at 12pm are along the line that goes to the right starting from 12pm, meaning that M and L start at 12pm.","block":"triangular_testing","condition":"111","experiment":"2YP3","graph":"triangular","internal_node_id":"0.0-9.0-0.0","q":16,"rt":119852,"session":"17012262\na17012262","subject":"OFOB1","time_elapsed":749430,"trial_index":22,"trial_type":"html","url":"../views/src/external/stimulus.html"},{"_id":{"$oid":"61f34674f32bcfe23f6eea4b"},"answer":"if the left line of the dot begins at 12pm","block":"triangular_testing","condition":"121","experiment":"2YP3","graph":"triangular","internal_node_id":"0.0-9.0-0.0","q":16,"rt":36163,"session":"a17235796","subject":"B44PE","time_elapsed":614489,"trial_index":22,"trial_type":"html","url":"../views/src/external/stimulus.html"},{"_id":{"$oid":"61f34674f32bcfe23f6eea65"},"answer":"Look Look at the graph where it says 12p and then look at the line to the right to see which shifts start are 12pm. ","block":"triangular_testing","condition":"121","experiment":"2YP3","graph":"triangular","internal_node_id":"0.0-9.0-0.0","q":16,"rt":52697,"session":"a16219353","subject":"96GEP","time_elapsed":847727,"trial_index":22,"trial_type":"html","url":"../views/src/external/stimulus.html"},{"_id":{"$oid":"61f34674f32bcfe23f6eea7f"},"answer":"You look at B and F see they are parallel points to 12 pm.","block":"triangular_testing","condition":"121","experiment":"2YP3","graph":"triangular","internal_node_id":"0.0-9.0-0.0","q":16,"rt":31536,"session":"a15415850","subject":"VP6G3","time_elapsed":399145,"trial_index":22,"trial_type":"html","url":"../views/src/external/stimulus.html"},{"_id":{"$oid":"61f34674f32bcfe23f6eea99"},"answer":"go to 12pm on the x axis and move up vertically to see which events are on that line","block":"triangular_testing","condition":"111","experiment":"2YP3","graph":"triangular","internal_node_id":"0.0-9.0-0.0","q":16,"rt":32320,"session":"a14821119\na14821119","subject":"QLO9H","time_elapsed":594055,"trial_index":22,"trial_type":"html","url":"../views/src/external/stimulus.html"},{"_id":{"$oid":"61f34674f32bcfe23f6eeacd"},"answer":"go to 12pm on the X axis and go directly up to see which evnts are aligned ","block":"triangular_testing","condition":"111","experiment":"2YP3","graph":"triangular","internal_node_id":"0.0-9.0-0.0","q":16,"rt":22760,"session":"a14821119","subject":"5TXOT","time_elapsed":269796,"trial_index":22,"trial_type":"html","url":"../views/src/external/stimulus.html"},{"_id":{"$oid":"61f34674f32bcfe23f6eeb01"},"answer":"You look at 12 pm on the x axis and look at the number above it that occur along the same line on the y axis.","block":"triangular_testing","condition":"121","experiment":"2YP3","graph":"triangular","internal_node_id":"0.0-9.0-0.0","q":16,"rt":29594,"session":"a16783696","subject":"98VDX","time_elapsed":756589,"trial_index":22,"trial_type":"html","url":"../views/src/external/stimulus.html"},{"_id":{"$oid":"61f34674f32bcfe23f6eeb1b"},"answer":"Looking for the letters on the graph that have lined up with 12pm (F and B)","block":"triangular_testing","condition":"121","experiment":"2YP3","graph":"triangular","internal_node_id":"0.0-9.0-0.0","q":16,"rt":36578,"session":"a16325198","subject":"8MT4O","time_elapsed":517784,"trial_index":22,"trial_type":"html","url":"../views/src/external/stimulus.html"},{"_id":{"$oid":"61f34674f32bcfe23f6eeb35"},"answer":"I ignore the diagonal lines and look straight above to see which events are along the 12pm vertical line","block":"triangular_testing","condition":"121","experiment":"2YP3","graph":"triangular","internal_node_id":"0.0-9.0-0.0","q":16,"rt":28717,"session":"a16641170","subject":"E9SDE","time_elapsed":802754,"trial_index":22,"trial_type":"html","url":"../views/src/external/stimulus.html"},{"_id":{"$oid":"61f34674f32bcfe23f6eeb4f"},"answer":"Whichever letters align with 12pm right above the horizontal axis (B and F in this case, based on my interpretation of the graph).","block":"triangular_testing","condition":"121","experiment":"2YP3","graph":"triangular","internal_node_id":"0.0-9.0-0.0","q":16,"rt":103063,"session":"a16413173","subject":"K9UQH","time_elapsed":2015618,"trial_index":22,"trial_type":"html","url":"../views/src/external/stimulus.html"},{"_id":{"$oid":"61f34674f32bcfe23f6eeb69"},"answer":"Follow the line going up and to the right (diagonally) from the 12pm point on the x-axis. The points that fall on this line are shifts that start at 12pm.","block":"triangular_testing","condition":"111","experiment":"2YP3","graph":"triangular","internal_node_id":"0.0-9.0-0.0","q":16,"rt":165799,"session":"a16885269\na16885269","subject":"LAZ3T","time_elapsed":736443,"trial_index":22,"trial_type":"html","url":"../views/src/external/stimulus.html"},{"_id":{"$oid":"61f34674f32bcfe23f6eeb83"},"answer":"Look at what points match the point of 12 pm based on the X-axis.","block":"triangular_testing","condition":"111","experiment":"2YP3","graph":"triangular","internal_node_id":"0.0-9.0-0.0","q":16,"rt":49499,"session":"a16109769","subject":"EZ7J5","time_elapsed":584089,"trial_index":22,"trial_type":"html","url":"../views/src/external/stimulus.html"},{"_id":{"$oid":"61f34674f32bcfe23f6eeb9d"},"answer":"Look at the bottom where time of day is and find 12pm. Afterwards, look up to see which dots are aligned with 12pm","block":"triangular_testing","condition":"111","experiment":"2YP3","graph":"triangular","internal_node_id":"0.0-9.0-0.0","q":16,"rt":73099,"session":"a09436222","subject":"WYZCU","time_elapsed":481224,"trial_index":22,"trial_type":"html","url":"../views/src/external/stimulus.html"},{"_id":{"$oid":"61f34674f32bcfe23f6eebb7"},"answer":"Vertical axis","block":"triangular_testing","condition":"111","experiment":"2YP3","graph":"triangular","internal_node_id":"0.0-9.0-0.0","q":16,"rt":11916,"session":"a16847802","subject":"WB4HC","time_elapsed":1253084,"trial_index":22,"trial_type":"html","url":"../views/src/external/stimulus.html"},{"_id":{"$oid":"61f34674f32bcfe23f6eebd1"},"answer":"The left line moving up and to the right indicate the start time of shifts, so by finding the coordinating point and left line at 12pm, you can find what shifts start at that time","block":"triangular_testing","condition":"121","experiment":"2YP3","graph":"triangular","internal_node_id":"0.0-9.0-0.0","q":16,"rt":87212,"session":"a15889123","subject":"OE3DT","time_elapsed":866689,"trial_index":22,"trial_type":"html","url":"../views/src/external/stimulus.html"},{"_id":{"$oid":"61f34674f32bcfe23f6eebeb"},"answer":"Oh no i read the x axis wrong, 12pm is the vertex of the diamond part of the graph not the one before. From there you go up the y axis","block":"triangular_testing","condition":"121","experiment":"2YP3","graph":"triangular","internal_node_id":"0.0-9.0-0.0","q":16,"rt":55755,"session":"a15777676","subject":"1QMGP","time_elapsed":586980,"trial_index":22,"trial_type":"html","url":"../views/src/external/stimulus.html"},{"_id":{"$oid":"61f34674f32bcfe23f6eec39"},"answer":"Look Look at x axis and see which letter starts there/ has a point","block":"triangular_testing","condition":"111","experiment":"2YP3","graph":"triangular","internal_node_id":"0.0-9.0-0.0","q":16,"rt":26096,"session":"a16608791","subject":"Z461O","time_elapsed":656702,"trial_index":22,"trial_type":"html","url":"../views/src/external/stimulus.html"},{"_id":{"$oid":"61f34674f32bcfe23f6eec53"},"answer":"Look at the x axis (start and end time (time of day) go to 12pm on that axis scan up and you will located the two shifts that start at 12 pm","block":"triangular_testing","condition":"111","experiment":"2YP3","graph":"triangular","internal_node_id":"0.0-9.0-0.0","q":16,"rt":87320,"session":"a16074760","subject":"E6KMK","time_elapsed":1558678,"trial_index":22,"trial_type":"html","url":"../views/src/external/stimulus.html"},{"_id":{"$oid":"61f34674f32bcfe23f6eec6d"},"answer":"12 pm on the x-axis going up are the shifts that start at 12 pm","block":"triangular_testing","condition":"111","experiment":"2YP3","graph":"triangular","internal_node_id":"0.0-9.0-0.0","q":16,"rt":38616,"session":"a15404283","subject":"0F1A8","time_elapsed":814827,"trial_index":22,"trial_type":"html","url":"../views/src/external/stimulus.html"},{"_id":{"$oid":"61f34674f32bcfe23f6eec87"},"answer":"F & B start at 12 because the dots are aligned with 12pm","block":"triangular_testing","condition":"111","experiment":"2YP3","graph":"triangular","internal_node_id":"0.0-9.0-0.0","q":16,"rt":54264,"session":"a16528837","subject":"9S5Z0","time_elapsed":1404111,"trial_index":22,"trial_type":"html","url":"../views/src/external/stimulus.html"},{"_id":{"$oid":"61f34674f32bcfe23f6eeca1"},"answer":"look at 12pm","block":"triangular_testing","condition":"121","experiment":"2YP3","graph":"triangular","internal_node_id":"0.0-9.0-0.0","q":16,"rt":38117,"session":"a17184034","subject":"ARCSZ","time_elapsed":754846,"trial_index":22,"trial_type":"html","url":"../views/src/external/stimulus.html"},{"_id":{"$oid":"61f34674f32bcfe23f6eecbb"},"answer":"LookI looked at X-axis and look for 12 pm.","block":"triangular_testing","condition":"111","experiment":"2YP3","graph":"triangular","internal_node_id":"0.0-9.0-0.0","q":16,"rt":24391,"session":"a16348868","subject":"F86ZM","time_elapsed":739556,"trial_index":22,"trial_type":"html","url":"../views/src/external/stimulus.html"},{"_id":{"$oid":"61f34674f32bcfe23f6eecd5"},"answer":"look at all of the points that fall within 12pm on the x-axis","block":"triangular_testing","condition":"121","experiment":"2YP3","graph":"triangular","internal_node_id":"0.0-9.0-0.0","q":16,"rt":36348,"session":"a15418907\na15418907","subject":"0LCME","time_elapsed":619107,"trial_index":22,"trial_type":"html","url":"../views/src/external/stimulus.html"},{"_id":{"$oid":"61f34674f32bcfe23f6eecef"},"answer":"Go to the x-axis and find 12 PM, then follow a vertical line up and any shifts along that line start then. ","block":"triangular_testing","condition":"111","experiment":"2YP3","graph":"triangular","internal_node_id":"0.0-9.0-0.0","q":16,"rt":107473,"session":"a17174133","subject":"UN6MT","time_elapsed":644217,"trial_index":22,"trial_type":"html","url":"../views/src/external/stimulus.html"},{"_id":{"$oid":"61f34674f32bcfe23f6eed09"},"answer":"you can tell which event starts by looking at where the shift ends and count backwards in order to find out when it started.","block":"triangular_testing","condition":"111","experiment":"2YP3","graph":"triangular","internal_node_id":"0.0-9.0-0.0","q":16,"rt":331946,"session":"a16900930","subject":"NTSOK","time_elapsed":2153231,"trial_index":22,"trial_type":"html","url":"../views/src/external/stimulus.html"},{"_id":{"$oid":"61f34674f32bcfe23f6eed23"},"answer":"The line that starts at 12 that is diagonally shooting to the right starting from the 12 point, any dots on that line start at 12. Its hard to describe how I determined it.","block":"triangular_testing","condition":"121","experiment":"2YP3","graph":"triangular","internal_node_id":"0.0-9.0-0.0","q":16,"rt":88452,"session":"a17155299","subject":"CHP0K","time_elapsed":692210,"trial_index":22,"trial_type":"html","url":"../views/src/external/stimulus.html"},{"_id":{"$oid":"61f34674f32bcfe23f6eed57"},"answer":"     You check the duration of the shift and counts backwards to determine which events start at 12pm","block":"triangular_testing","condition":"111","experiment":"2YP3","graph":"triangular","internal_node_id":"0.0-9.0-0.0","q":16,"rt":68899,"session":"a16900930","subject":"L6X0K","time_elapsed":684091,"trial_index":22,"trial_type":"html","url":"../views/src/external/stimulus.html"},{"_id":{"$oid":"61f34674f32bcfe23f6eed71"},"answer":"Draw a vertical line up from the 12PM label on the x axis, and any dots that fall on that line are events that begin at 12PM.","block":"triangular_testing","condition":"111","experiment":"2YP3","graph":"triangular","internal_node_id":"0.0-9.0-0.0","q":16,"rt":47411,"session":"a16683922","subject":"KNH2B","time_elapsed":930712,"trial_index":22,"trial_type":"html","url":"../views/src/external/stimulus.html"},{"_id":{"$oid":"61f34674f32bcfe23f6eeda5"},"answer":"","block":"triangular_testing","condition":"111","experiment":"2YP3","graph":"triangular","internal_node_id":"0.0-9.0-0.0","q":16,"rt":8152,"session":"a17243733","subject":"XOZJ7","time_elapsed":462176,"trial_index":22,"trial_type":"html","url":"../views/src/external/stimulus.html"},{"_id":{"$oid":"61f34674f32bcfe23f6eedbf"},"answer":"any dots on the line originating from 12 pm and headed towards the right","block":"triangular_testing","condition":"111","experiment":"2YP3","graph":"triangular","internal_node_id":"0.0-9.0-0.0","q":16,"rt":58816,"session":"a15049392","subject":"G0O8S","time_elapsed":891954,"trial_index":22,"trial_type":"html","url":"../views/src/external/stimulus.html"},{"_id":{"$oid":"61f34674f32bcfe23f6eedf3"},"answer":"tthe black dots above it","block":"triangular_testing","condition":"121","experiment":"2YP3","graph":"triangular","internal_node_id":"0.0-9.0-0.0","q":16,"rt":57811,"session":"a15566972","subject":"Y7EP3","time_elapsed":610307,"trial_index":22,"trial_type":"html","url":"../views/src/external/stimulus.html"},{"_id":{"$oid":"61f34674f32bcfe23f6eee27"},"answer":"LooLook at the time and see if ppl are 4 hrs ahead, on time or behind 12pm","block":"triangular_testing","condition":"111","experiment":"2YP3","graph":"triangular","internal_node_id":"0.0-9.0-0.0","q":16,"rt":536066,"session":"a15987011","subject":"776UX","time_elapsed":1644082,"trial_index":22,"trial_type":"html","url":"../views/src/external/stimulus.html"},{"_id":{"$oid":"61f34674f32bcfe23f6eee41"},"answer":"look at the x axis and see which dots are at the 12pm mark","block":"triangular_testing","condition":"111","experiment":"2YP3","graph":"triangular","internal_node_id":"0.0-9.0-0.0","q":16,"rt":42528,"session":"a15497274","subject":"XCK4Q","time_elapsed":515393,"trial_index":22,"trial_type":"html","url":"../views/src/external/stimulus.html"},{"_id":{"$oid":"61f34674f32bcfe23f6eee5b"},"answer":"look at the x axis for 12pm and then go up to see what letters are plotted there.","block":"triangular_testing","condition":"121","experiment":"2YP3","graph":"triangular","internal_node_id":"0.0-9.0-0.0","q":16,"rt":27780,"session":"15994246","subject":"57C0V","time_elapsed":1228158,"trial_index":22,"trial_type":"html","url":"../views/src/external/stimulus.html"},{"_id":{"$oid":"61f34674f32bcfe23f6eee75"},"answer":"II go to the x-coordinate where it says 12PM. Anything directly above that would the shifts that start at 12PM.","block":"triangular_testing","condition":"121","experiment":"2YP3","graph":"triangular","internal_node_id":"0.0-9.0-0.0","q":16,"rt":58985,"session":"a15534110","subject":"NV47T","time_elapsed":1053379,"trial_index":22,"trial_type":"html","url":"../views/src/external/stimulus.html"},{"_id":{"$oid":"61f34674f32bcfe23f6eee8f"},"answer":"dots aligning the time","block":"triangular_testing","condition":"121","experiment":"2YP3","graph":"triangular","internal_node_id":"0.0-9.0-0.0","q":16,"rt":71934,"session":"a16686754","subject":"XKX1V","time_elapsed":646349,"trial_index":22,"trial_type":"html","url":"../views/src/external/stimulus.html"},{"_id":{"$oid":"61f34674f32bcfe23f6eeea9"},"answer":"Look at the x-axis where it indicates the time, and anything on the line where x =  12 will indicate events starting.","block":"triangular_testing","condition":"111","experiment":"2YP3","graph":"triangular","internal_node_id":"0.0-9.0-0.0","q":16,"rt":52455,"session":"a16138265","subject":"F4XPD","time_elapsed":567606,"trial_index":22,"trial_type":"html","url":"../views/src/external/stimulus.html"},{"_id":{"$oid":"61f34674f32bcfe23f6eeec3"},"answer":"To determine what events begin at 12pm. I look first at the x-axis at the number 12, then go up and left on the line to see that both M and L start their shifts at 12pm. ","block":"triangular_testing","condition":"121","experiment":"2YP3","graph":"triangular","internal_node_id":"0.0-9.0-0.0","q":16,"rt":89910,"session":"a15805246","subject":"CLV1E","time_elapsed":1112770,"trial_index":22,"trial_type":"html","url":"../views/src/external/stimulus.html"},{"_id":{"$oid":"61f34674f32bcfe23f6eeedd"},"answer":"look look at the x axis and find 12 pm. dots directly above 12 pm start at 12.","block":"triangular_testing","condition":"111","experiment":"2YP3","graph":"triangular","internal_node_id":"0.0-9.0-0.0","q":16,"rt":37043,"session":"a16364378","subject":"BYKF0","time_elapsed":687966,"trial_index":22,"trial_type":"html","url":"../views/src/external/stimulus.html"},{"_id":{"$oid":"61f34674f32bcfe23f6eeef7"},"answer":"Look on the x axis for 12pm, then follow the diagonal line that goes up and to the right of the tick at 12pm. Every dot on that line represents an event that starts at 12","block":"triangular_testing","condition":"121","experiment":"2YP3","graph":"triangular","internal_node_id":"0.0-9.0-0.0","q":16,"rt":44275,"session":"a15769204","subject":"2NF6Q","time_elapsed":312394,"trial_index":22,"trial_type":"html","url":"../views/src/external/stimulus.html"},{"_id":{"$oid":"61f34674f32bcfe23f6eef11"},"answer":"m","block":"triangular_testing","condition":"111","experiment":"2YP3","graph":"triangular","internal_node_id":"0.0-9.0-0.0","q":16,"rt":11123,"session":"a17203114","subject":"OHLRP","time_elapsed":490022,"trial_index":22,"trial_type":"html","url":"../views/src/external/stimulus.html"},{"_id":{"$oid":"61f34674f32bcfe23f6eef2b"},"answer":"Wherever the dot is placed, is what I assume the event starts.","block":"triangular_testing","condition":"121","experiment":"2YP3","graph":"triangular","internal_node_id":"0.0-9.0-0.0","q":16,"rt":51501,"session":"a17191922","subject":"K7HSV","time_elapsed":554337,"trial_index":22,"trial_type":"html","url":"../views/src/external/stimulus.html"},{"_id":{"$oid":"61f34674f32bcfe23f6eef5f"},"answer":"Trace up from the 12pm mark and mark all the shifts on the line.","block":"triangular_testing","condition":"111","experiment":"2YP3","graph":"triangular","internal_node_id":"0.0-9.0-0.0","q":16,"rt":38367,"session":"a16324253\na16324253","subject":"BK0TH","time_elapsed":618472,"trial_index":22,"trial_type":"html","url":"../views/src/external/stimulus.html"},{"_id":{"$oid":"61f34674f32bcfe23f6eef79"},"answer":"The bullet points that are directly above 12 pm are the ones that start at 12 pm","block":"triangular_testing","condition":"111","experiment":"2YP3","graph":"triangular","internal_node_id":"0.0-9.0-0.0","q":16,"rt":42572,"session":"a17170924","subject":"SV1K5","time_elapsed":560573,"trial_index":22,"trial_type":"html","url":"../views/src/external/stimulus.html"},{"_id":{"$oid":"61f34674f32bcfe23f6eef93"},"answer":"If the data point lies on the 12 pm point on the x axis","block":"triangular_testing","condition":"111","experiment":"2YP3","graph":"triangular","internal_node_id":"0.0-9.0-0.0","q":16,"rt":28263,"session":"a15449379","subject":"TE76G","time_elapsed":623277,"trial_index":22,"trial_type":"html","url":"../views/src/external/stimulus.html"},{"_id":{"$oid":"61f34674f32bcfe23f6eefad"},"answer":"You find 12pm on the x-axis, and look to the line that goes to the left diagnoally, or look straight up from 12pm on the x-axis.","block":"triangular_testing","condition":"121","experiment":"2YP3","graph":"triangular","internal_node_id":"0.0-9.0-0.0","q":16,"rt":72690,"session":"a15960978","subject":"9EYZ0","time_elapsed":783943,"trial_index":22,"trial_type":"html","url":"../views/src/external/stimulus.html"},{"_id":{"$oid":"61f34674f32bcfe23f6eefc7"},"answer":"Well you start by locating 12 pm and then any event(s) that are found on the upwards line from it are included... So, M nad L are events that start at 12pm","block":"triangular_testing","condition":"121","experiment":"2YP3","graph":"triangular","internal_node_id":"0.0-9.0-0.0","q":16,"rt":55494,"session":"a16768747","subject":"0EMZW","time_elapsed":483953,"trial_index":22,"trial_type":"html","url":"../views/src/external/stimulus.html"},{"_id":{"$oid":"61f34674f32bcfe23f6eefe1"},"answer":"we look at the x-axis at 12 and if there is a dot at 12 that is the start of a shift","block":"triangular_testing","condition":"111","experiment":"2YP3","graph":"triangular","internal_node_id":"0.0-9.0-0.0","q":16,"rt":33040,"session":"a16122200","subject":"KEMWH","time_elapsed":493852,"trial_index":22,"trial_type":"html","url":"../views/src/external/stimulus.html"},{"_id":{"$oid":"61f34674f32bcfe23f6ef02f"},"answer":"All points along the right diagonal line originating from the 12 PM tick mark on the horizontal axis","block":"triangular_testing","condition":"121","experiment":"2YP3","graph":"triangular","internal_node_id":"0.0-9.0-0.0","q":16,"rt":27536,"session":"a159507373","subject":"TBQB2","time_elapsed":443846,"trial_index":22,"trial_type":"html","url":"../views/src/external/stimulus.html"},{"_id":{"$oid":"61f34674f32bcfe23f6ef049"},"answer":"GoGoGo to the x axis and find the 12 pm indicator. Go up from there and the dots that fall on that are the shifts that start at 12 pm.","block":"triangular_testing","condition":"121","experiment":"2YP3","graph":"triangular","internal_node_id":"0.0-9.0-0.0","q":16,"rt":54641,"session":"a17103928","subject":"MM806","time_elapsed":463390,"trial_index":22,"trial_type":"html","url":"../views/src/external/stimulus.html"},{"_id":{"$oid":"61f34674f32bcfe23f6ef063"},"answer":"Start at 12 on the x-axis and follow the positive slope to the right","block":"triangular_testing","condition":"121","experiment":"2YP3","graph":"triangular","internal_node_id":"0.0-9.0-0.0","q":16,"rt":53747,"session":"a15131176","subject":"S0WU7","time_elapsed":884064,"trial_index":22,"trial_type":"html","url":"../views/src/external/stimulus.html"},{"_id":{"$oid":"61f34674f32bcfe23f6ef07d"},"answer":"Whichever dots aligns with 12pm on the x-axis","block":"triangular_testing","condition":"111","experiment":"2YP3","graph":"triangular","internal_node_id":"0.0-9.0-0.0","q":16,"rt":30599,"session":"a16622511","subject":"Y0MZ6","time_elapsed":806110,"trial_index":22,"trial_type":"html","url":"../views/src/external/stimulus.html"},{"_id":{"$oid":"61f34674f32bcfe23f6ef097"},"answer":"look at the 12pm n the x axis and then follow that all the way up. Whichever shifts overlap are the ones that start at 12pm","block":"triangular_testing","condition":"111","experiment":"2YP3","graph":"triangular","internal_node_id":"0.0-9.0-0.0","q":16,"rt":42545,"session":"a16229507","subject":"8V8HJ","time_elapsed":688446,"trial_index":22,"trial_type":"html","url":"../views/src/external/stimulus.html"},{"_id":{"$oid":"61f34674f32bcfe23f6ef0b1"},"answer":"look vertically to see if there are any dots on the line, but now im starting to seee that the shifts are shown horizontally on the graph (?)","block":"triangular_testing","condition":"121","experiment":"2YP3","graph":"triangular","internal_node_id":"0.0-9.0-0.0","q":16,"rt":76694,"session":"a17082219","subject":"X3B04","time_elapsed":753795,"trial_index":22,"trial_type":"html","url":"../views/src/external/stimulus.html"},{"_id":{"$oid":"61f34674f32bcfe23f6ef0cb"},"answer":"It is determined by the x-axis and which letters sit above the 12pm time. ","block":"triangular_testing","condition":"121","experiment":"2YP3","graph":"triangular","internal_node_id":"0.0-9.0-0.0","q":16,"rt":88589,"session":"a15401485","subject":"4URRL","time_elapsed":1252839,"trial_index":22,"trial_type":"html","url":"../views/src/external/stimulus.html"},{"_id":{"$oid":"61f34674f32bcfe23f6ef0ff"},"answer":"you You look at the X-axis and find 12 pm. Then find whatever dot lines up vertically in that time row.","block":"triangular_testing","condition":"111","experiment":"2YP3","graph":"triangular","internal_node_id":"0.0-9.0-0.0","q":16,"rt":58336,"session":"a16950015","subject":"8BB1M","time_elapsed":712487,"trial_index":22,"trial_type":"html","url":"../views/src/external/stimulus.html"},{"_id":{"$oid":"61f34674f32bcfe23f6ef119"},"answer":"The point will have a line approaching from the right. This line represents the amount of time that has passed since beginning the shift. Following this line to zero provides you with the time the shift started. Reverse engineer this process to find which events start at 12 pm (follow the line as it goes to the right).","block":"triangular_testing","condition":"121","experiment":"2YP3","graph":"triangular","internal_node_id":"0.0-9.0-0.0","q":16,"rt":107598,"session":"a16613812","subject":"WRHPM","time_elapsed":468300,"trial_index":22,"trial_type":"html","url":"../views/src/external/stimulus.html"},{"_id":{"$oid":"61f34674f32bcfe23f6ef133"},"answer":"Look at 12 pm on the x axis and draw an imaginary line up to see what dots occur at 12 pm.","block":"triangular_testing","condition":"111","experiment":"2YP3","graph":"triangular","internal_node_id":"0.0-9.0-0.0","q":16,"rt":53550,"session":"a16329216","subject":"77SKE","time_elapsed":711405,"trial_index":22,"trial_type":"html","url":"../views/src/external/stimulus.html"},{"_id":{"$oid":"61f34674f32bcfe23f6ef167"},"answer":"Starting at the 12pm marker on the x-axis, and going up-right using the diagonal line. Going up this diagonal line, there are the shifts M and L","block":"triangular_testing","condition":"111","experiment":"2YP3","graph":"triangular","internal_node_id":"0.0-9.0-0.0","q":16,"rt":229448,"session":"a16906699","subject":"K7HM9","time_elapsed":2040169,"trial_index":22,"trial_type":"html","url":"../views/src/external/stimulus.html"},{"_id":{"$oid":"61f34674f32bcfe23f6ef181"},"answer":"look for 12pm on the graph and see what points fall on that line/triange.","block":"triangular_testing","condition":"121","experiment":"2YP3","graph":"triangular","internal_node_id":"0.0-9.0-0.0","q":16,"rt":70997,"session":"a15274291","subject":"EMKFA","time_elapsed":663959,"trial_index":22,"trial_type":"html","url":"../views/src/external/stimulus.html"},{"_id":{"$oid":"61f34674f32bcfe23f6ef19b"},"answer":"The points above 12 pm","block":"triangular_testing","condition":"111","experiment":"2YP3","graph":"triangular","internal_node_id":"0.0-9.0-0.0","q":16,"rt":19845,"session":"a16553672","subject":"S8NY4","time_elapsed":653732,"trial_index":22,"trial_type":"html","url":"../views/src/external/stimulus.html"},{"_id":{"$oid":"61f34674f32bcfe23f6ef1b5"},"answer":"Shifts B and F start at 12pm because that is the x axis","block":"triangular_testing","condition":"121","experiment":"2YP3","graph":"triangular","internal_node_id":"0.0-9.0-0.0","q":16,"rt":27389,"session":"a15923414","subject":"YAFMA","time_elapsed":230498,"trial_index":22,"trial_type":"html","url":"../views/src/external/stimulus.html"},{"_id":{"$oid":"61f34674f32bcfe23f6ef1cf"},"answer":"look at x axis and find 12pm, then follow straight up","block":"triangular_testing","condition":"111","experiment":"2YP3","graph":"triangular","internal_node_id":"0.0-9.0-0.0","q":16,"rt":50199,"session":"a15558540\na15558540","subject":"PQA54","time_elapsed":927830,"trial_index":22,"trial_type":"html","url":"../views/src/external/stimulus.html"},{"_id":{"$oid":"61f34674f32bcfe23f6ef1e9"},"answer":"You can tell by reading the x-axis of the graph which would happen to be the Start and End Time of each shift stated in 1 hour intervals of the day starting at 8am all the way to 8pm\n","block":"triangular_testing","condition":"111","experiment":"2YP3","graph":"triangular","internal_node_id":"0.0-9.0-0.0","q":16,"rt":78722,"session":"a15957989","subject":"194UU","time_elapsed":1214690,"trial_index":22,"trial_type":"html","url":"../views/src/external/stimulus.html"},{"_id":{"$oid":"61f34674f32bcfe23f6ef203"},"answer":"see vertically which alphabets are above 12pm","block":"triangular_testing","condition":"111","experiment":"2YP3","graph":"triangular","internal_node_id":"0.0-9.0-0.0","q":16,"rt":28466,"session":"a16924586","subject":"802RA","time_elapsed":408664,"trial_index":22,"trial_type":"html","url":"../views/src/external/stimulus.html"},{"_id":{"$oid":"61f34674f32bcfe23f6ef21d"},"answer":"TO determine what shifts start at 12pm, you need to find 12pm on the X-axis and see if there are any points straight above it(you must only go straight up from the point on the axis as if you were following a perpendicular line at that point).","block":"triangular_testing","condition":"111","experiment":"2YP3","graph":"triangular","internal_node_id":"0.0-9.0-0.0","q":16,"rt":197763,"session":"a16675361\na16675361","subject":"FDRWD","time_elapsed":922505,"trial_index":22,"trial_type":"html","url":"../views/src/external/stimulus.html"},{"_id":{"$oid":"61f34674f32bcfe23f6ef237"},"answer":"see vertically above 12pm ","block":"triangular_testing","condition":"111","experiment":"2YP3","graph":"triangular","internal_node_id":"0.0-9.0-0.0","q":16,"rt":14670,"session":"a16924586","subject":"XO4JG","time_elapsed":337201,"trial_index":22,"trial_type":"html","url":"../views/src/external/stimulus.html"},{"_id":{"$oid":"61f34674f32bcfe23f6ef26b"},"answer":"Look at the x-axis, the bottom of the graph and look for a dot that corresponds with \"12pm\"","block":"triangular_testing","condition":"111","experiment":"2YP3","graph":"triangular","internal_node_id":"0.0-9.0-0.0","q":16,"rt":36807,"session":"a15867428","subject":"U820R","time_elapsed":833991,"trial_index":22,"trial_type":"html","url":"../views/src/external/stimulus.html"},{"_id":{"$oid":"61f34674f32bcfe23f6ef285"},"answer":"start at the 12pm mark and move up","block":"triangular_testing","condition":"121","experiment":"2YP3","graph":"triangular","internal_node_id":"0.0-9.0-0.0","q":16,"rt":13137,"session":"a15902241\na15902241","subject":"UH8DS","time_elapsed":565147,"trial_index":22,"trial_type":"html","url":"../views/src/external/stimulus.html"},{"_id":{"$oid":"61f34674f32bcfe23f6ef29f"},"answer":"I look over to the x axis to determine which events start at 12pm","block":"triangular_testing","condition":"111","experiment":"2YP3","graph":"triangular","internal_node_id":"0.0-9.0-0.0","q":16,"rt":24897,"session":"a15468160","subject":"UQTQ6","time_elapsed":574887,"trial_index":22,"trial_type":"html","url":"../views/src/external/stimulus.html"},{"_id":{"$oid":"61f34674f32bcfe23f6ef2b9"},"answer":"Find 12pm on the x-axis, then move all the way up the diagonal line that moves up and to the right. List every dot (event) you hit on the way to the end of the line. This gives you M and L that start at 12pm.","block":"triangular_testing","condition":"121","experiment":"2YP3","graph":"triangular","internal_node_id":"0.0-9.0-0.0","q":16,"rt":122626,"session":"a15917800","subject":"PJYUH","time_elapsed":634974,"trial_index":22,"trial_type":"html","url":"../views/src/external/stimulus.html"},{"_id":{"$oid":"61f34674f32bcfe23f6ef2d3"},"answer":"look at x axis where 12pm is and look where the plots are pointed on the y axis ","block":"triangular_testing","condition":"121","experiment":"2YP3","graph":"triangular","internal_node_id":"0.0-9.0-0.0","q":16,"rt":39785,"session":"a17126609","subject":"60VNG","time_elapsed":629357,"trial_index":22,"trial_type":"html","url":"../views/src/external/stimulus.html"},{"_id":{"$oid":"61f34674f32bcfe23f6ef2ed"},"answer":"Look at the letters that correspond to 12 pm on the x-axis.","block":"triangular_testing","condition":"111","experiment":"2YP3","graph":"triangular","internal_node_id":"0.0-9.0-0.0","q":16,"rt":48636,"session":"a17147364","subject":"EA6YH","time_elapsed":861525,"trial_index":22,"trial_type":"html","url":"../views/src/external/stimulus.html"},{"_id":{"$oid":"61f34674f32bcfe23f6ef321"},"answer":"Every points above the 12pm sign","block":"triangular_testing","condition":"121","experiment":"2YP3","graph":"triangular","internal_node_id":"0.0-9.0-0.0","q":16,"rt":28101,"session":"a16965466","subject":"UO0XA","time_elapsed":540347,"trial_index":22,"trial_type":"html","url":"../views/src/external/stimulus.html"},{"_id":{"$oid":"61f34674f32bcfe23f6ef33b"},"answer":"Look at the x-axis and see what dots are in a line with 12 pm. that means draw a vertical line up 12 and see what dots are in that line ","block":"triangular_testing","condition":"121","experiment":"2YP3","graph":"triangular","internal_node_id":"0.0-9.0-0.0","q":16,"rt":36614,"session":"a16247152","subject":"6VLV8","time_elapsed":572644,"trial_index":22,"trial_type":"html","url":"../views/src/external/stimulus.html"},{"_id":{"$oid":"61f34674f32bcfe23f6ef355"},"answer":"LL.   look at the x axis for time, look at y axis for which shift","block":"triangular_testing","condition":"121","experiment":"2YP3","graph":"triangular","internal_node_id":"0.0-9.0-0.0","q":16,"rt":46520,"session":"a15428681","subject":"KPZTN","time_elapsed":318448,"trial_index":22,"trial_type":"html","url":"../views/src/external/stimulus.html"},{"_id":{"$oid":"61f34674f32bcfe23f6ef36f"},"answer":"Events that start at 12 are on the positive slope that crosses through 12 pm. ","block":"triangular_testing","condition":"121","experiment":"2YP3","graph":"triangular","internal_node_id":"0.0-9.0-0.0","q":16,"rt":38681,"session":"a16788617\na16788617","subject":"W8QQ3","time_elapsed":421721,"trial_index":22,"trial_type":"html","url":"../views/src/external/stimulus.html"},{"_id":{"$oid":"61f34674f32bcfe23f6ef389"},"answer":"B and F start, J ends ","block":"triangular_testing","condition":"111","experiment":"2YP3","graph":"triangular","internal_node_id":"0.0-9.0-0.0","q":16,"rt":42076,"session":"a15513832","subject":"7BV0L","time_elapsed":755583,"trial_index":22,"trial_type":"html","url":"../views/src/external/stimulus.html"},{"_id":{"$oid":"61f34674f32bcfe23f6ef3a3"},"answer":"Begin at point marked 12 PM at the bottom, and move diagonally up and to the right. Any shift the line intersects begins at that time.","block":"triangular_testing","condition":"111","experiment":"2YP3","graph":"triangular","internal_node_id":"0.0-9.0-0.0","q":16,"rt":63018,"session":"a15897677\na15897677","subject":"K5PDZ","time_elapsed":507339,"trial_index":22,"trial_type":"html","url":"../views/src/external/stimulus.html"},{"_id":{"$oid":"61f34674f32bcfe23f6ef3bd"},"answer":"whichever dots are on the line that corresponds with 12pm","block":"triangular_testing","condition":"111","experiment":"2YP3","graph":"triangular","internal_node_id":"0.0-9.0-0.0","q":16,"rt":27175,"session":"a15454598","subject":"GB4TH","time_elapsed":438398,"trial_index":22,"trial_type":"html","url":"../views/src/external/stimulus.html"},{"_id":{"$oid":"61f34674f32bcfe23f6ef3d7"},"answer":"I look at the x-axis and see the 12pm mark and ID all the points that fall on x = 12pm","block":"triangular_testing","condition":"111","experiment":"2YP3","graph":"triangular","internal_node_id":"0.0-9.0-0.0","q":16,"rt":27422,"session":"a15992680","subject":"X8P7E","time_elapsed":501351,"trial_index":22,"trial_type":"html","url":"../views/src/external/stimulus.html"},{"_id":{"$oid":"61f34674f32bcfe23f6ef3f1"},"answer":"look at the lines connecting the dots ","block":"triangular_testing","condition":"111","experiment":"2YP3","graph":"triangular","internal_node_id":"0.0-9.0-0.0","q":16,"rt":25356,"session":"a1770579","subject":"DGJQ3","time_elapsed":288953,"trial_index":22,"trial_type":"html","url":"../views/src/external/stimulus.html"},{"_id":{"$oid":"61f34674f32bcfe23f6ef425"},"answer":"I look at the dots that align with 12pm on the x-axis","block":"triangular_testing","condition":"111","experiment":"2YP3","graph":"triangular","internal_node_id":"0.0-9.0-0.0","q":16,"rt":35655,"session":"a15585339","subject":"WUB39","time_elapsed":666802,"trial_index":22,"trial_type":"html","url":"../views/src/external/stimulus.html"},{"_id":{"$oid":"61f34674f32bcfe23f6ef43f"},"answer":"any points along the positively increasing line that begins at (12pm, 0) started at 12pm","block":"triangular_testing","condition":"111","experiment":"2YP3","graph":"triangular","internal_node_id":"0.0-9.0-0.0","q":16,"rt":124621,"session":"a16137762","subject":"N34B6","time_elapsed":852927,"trial_index":22,"trial_type":"html","url":"../views/src/external/stimulus.html"},{"_id":{"$oid":"61f34674f32bcfe23f6ef459"},"answer":"Shifts M and L, plus Shift B and F's coffee breaks, start at 12 PM.","block":"triangular_testing","condition":"121","experiment":"2YP3","graph":"triangular","internal_node_id":"0.0-9.0-0.0","q":16,"rt":48259,"session":"a16775456","subject":"02DBM","time_elapsed":1029252,"trial_index":22,"trial_type":"html","url":"../views/src/external/stimulus.html"},{"_id":{"$oid":"61f34674f32bcfe23f6ef473"},"answer":"y axisy axis","block":"triangular_testing","condition":"121","experiment":"2YP3","graph":"triangular","internal_node_id":"0.0-9.0-0.0","q":16,"rt":11342,"session":"a15839424","subject":"7DJGJ","time_elapsed":471448,"trial_index":22,"trial_type":"html","url":"../views/src/external/stimulus.html"},{"_id":{"$oid":"61f34674f32bcfe23f6ef4a7"},"answer":"You look at where the number 12pm is on the chart then you go up to see what letters line up with 12pm. In this case that is F and B.","block":"triangular_testing","condition":"111","experiment":"2YP3","graph":"triangular","internal_node_id":"0.0-9.0-0.0","q":16,"rt":65383,"session":"a16681470","subject":"2CZP7","time_elapsed":1144775,"trial_index":22,"trial_type":"html","url":"../views/src/external/stimulus.html"},{"_id":{"$oid":"61f34674f32bcfe23f6ef4c1"},"answer":"If their are dots ontop of the number 12","block":"triangular_testing","condition":"121","experiment":"2YP3","graph":"triangular","internal_node_id":"0.0-9.0-0.0","q":16,"rt":32979,"session":"a15927876","subject":"YJN2B","time_elapsed":623292,"trial_index":22,"trial_type":"html","url":"../views/src/external/stimulus.html"},{"_id":{"$oid":"61f34674f32bcfe23f6ef4db"},"answer":"shifts b and f begin","block":"triangular_testing","condition":"121","experiment":"2YP3","graph":"triangular","internal_node_id":"0.0-9.0-0.0","q":16,"rt":190001,"session":"a17082219\na17082219","subject":"ELVPK","time_elapsed":1211586,"trial_index":22,"trial_type":"html","url":"../views/src/external/stimulus.html"},{"_id":{"$oid":"61f34674f32bcfe23f6ef4f5"},"answer":"I would look at the x-axis and look at all the values that fall on the 12pm measurement.","block":"triangular_testing","condition":"111","experiment":"2YP3","graph":"triangular","internal_node_id":"0.0-9.0-0.0","q":16,"rt":24925,"session":"a16664786","subject":"VRHYF","time_elapsed":322002,"trial_index":22,"trial_type":"html","url":"../views/src/external/stimulus.html"},{"_id":{"$oid":"61f34674f32bcfe23f6ef529"},"answer":"figure out the start time of 12 pm (look at the point and see if it has points on 12 pm axis. Calculate the start time, break, and end time of each shift. ","block":"triangular_testing","condition":"111","experiment":"2YP3","graph":"triangular","internal_node_id":"0.0-9.0-0.0","q":16,"rt":216589,"session":"a15853813","subject":"694WT","time_elapsed":1769805,"trial_index":22,"trial_type":"html","url":"../views/src/external/stimulus.html"},{"_id":{"$oid":"61f34674f32bcfe23f6ef543"},"answer":"ToTo dTo To determine what event(s) start at 12 pm, you look at the bottom and look where 12 pm is. Then you go follow the line starting where 12 pm all the way to tthe top to see what event(s) start during that time.","block":"triangular_testing","condition":"111","experiment":"2YP3","graph":"triangular","internal_node_id":"0.0-9.0-0.0","q":16,"rt":68181,"session":"a17091192\na17091192","subject":"QADB9","time_elapsed":1167070,"trial_index":22,"trial_type":"html","url":"../views/src/external/stimulus.html"},{"_id":{"$oid":"61f34674f32bcfe23f6ef55d"},"answer":"a point that is along the axis where 12pm is means that's when the event starts.","block":"triangular_testing","condition":"121","experiment":"2YP3","graph":"triangular","internal_node_id":"0.0-9.0-0.0","q":16,"rt":72631,"session":"a16137081\na16137081","subject":"PRA08","time_elapsed":721294,"trial_index":22,"trial_type":"html","url":"../views/src/external/stimulus.html"},{"_id":{"$oid":"61f34674f32bcfe23f6ef5ab"},"answer":"You look at x axis too look at time then find 12pm and look up the column to see what dots are plotted along 12pm","block":"triangular_testing","condition":"111","experiment":"2YP3","graph":"triangular","internal_node_id":"0.0-9.0-0.0","q":16,"rt":50872,"session":"a15545916","subject":"KXRFL","time_elapsed":1036055,"trial_index":22,"trial_type":"html","url":"../views/src/external/stimulus.html"},{"_id":{"$oid":"61f34674f32bcfe23f6ef5c5"},"answer":"F and B start at 12pm because on the x axis of the graph, it tells you that those are the start and end times and there are shifts B and F at those times. ","block":"triangular_testing","condition":"111","experiment":"2YP3","graph":"triangular","internal_node_id":"0.0-9.0-0.0","q":16,"rt":51095,"session":"a16194024","subject":"LPY8N","time_elapsed":624600,"trial_index":22,"trial_type":"html","url":"../views/src/external/stimulus.html"},{"_id":{"$oid":"61f34674f32bcfe23f6ef5df"},"answer":"You see the mark of 12pm in the x axis and then follow the diagonal line to the right and see all of the points plotted in that line.","block":"triangular_testing","condition":"121","experiment":"2YP3","graph":"triangular","internal_node_id":"0.0-9.0-0.0","q":16,"rt":67572,"session":"a16430000","subject":"5P3XF","time_elapsed":526264,"trial_index":22,"trial_type":"html","url":"../views/src/external/stimulus.html"},{"_id":{"$oid":"61f34674f32bcfe23f6ef5f9"},"answer":"MEntally trace a straight line starting at the 12 pm point going straight up","block":"triangular_testing","condition":"121","experiment":"2YP3","graph":"triangular","internal_node_id":"0.0-9.0-0.0","q":16,"rt":27318,"session":"a15874333","subject":"AU0MW","time_elapsed":478207,"trial_index":22,"trial_type":"html","url":"../views/src/external/stimulus.html"},{"_id":{"$oid":"61f34674f32bcfe23f6ef613"},"answer":"You look at how long the shift is and then go to the 12 pm on the x-axis","block":"triangular_testing","condition":"121","experiment":"2YP3","graph":"triangular","internal_node_id":"0.0-9.0-0.0","q":16,"rt":33053,"session":"a15926963","subject":"HCGNQ","time_elapsed":684230,"trial_index":22,"trial_type":"html","url":"../views/src/external/stimulus.html"},{"_id":{"$oid":"61f34674f32bcfe23f6ef62d"},"answer":"find the dots that are in line with 12pm on the x axis\n","block":"triangular_testing","condition":"111","experiment":"2YP3","graph":"triangular","internal_node_id":"0.0-9.0-0.0","q":16,"rt":32829,"session":"a15530049","subject":"STJP3","time_elapsed":554606,"trial_index":22,"trial_type":"html","url":"../views/src/external/stimulus.html"},{"_id":{"$oid":"61f34674f32bcfe23f6ef647"},"answer":"look at what dots are above the 12 pm tick mark","block":"triangular_testing","condition":"111","experiment":"2YP3","graph":"triangular","internal_node_id":"0.0-9.0-0.0","q":16,"rt":53963,"session":"a15461338","subject":"GY85V","time_elapsed":835081,"trial_index":22,"trial_type":"html","url":"../views/src/external/stimulus.html"},{"_id":{"$oid":"61f34674f32bcfe23f6ef661"},"answer":"ook down a the x-axis or the start and end time axis and find 12p and then move up the graph in line with 12p and see what shift starts there ","block":"triangular_testing","condition":"111","experiment":"2YP3","graph":"triangular","internal_node_id":"0.0-9.0-0.0","q":16,"rt":58896,"session":"a16546781","subject":"3PADQ","time_elapsed":1315921,"trial_index":22,"trial_type":"html","url":"../views/src/external/stimulus.html"},{"_id":{"$oid":"61f34674f32bcfe23f6ef67b"},"answer":"You go to 12pm on x axis, ignore the triangular lines and go straight up. Then you will fine B and F on 12pm. ","block":"triangular_testing","condition":"121","experiment":"2YP3","graph":"triangular","internal_node_id":"0.0-9.0-0.0","q":16,"rt":57013,"session":"a15903042","subject":"240Y4","time_elapsed":6660976,"trial_index":22,"trial_type":"html","url":"../views/src/external/stimulus.html"},{"_id":{"$oid":"61f34674f32bcfe23f6ef695"},"answer":"FikDFollow the line that has a positive slope from the 12pm point on the x-axis","block":"triangular_testing","condition":"121","experiment":"2YP3","graph":"triangular","internal_node_id":"0.0-9.0-0.0","q":16,"rt":49996,"session":"a15568892","subject":"3SYRX","time_elapsed":452799,"trial_index":22,"trial_type":"html","url":"../views/src/external/stimulus.html"},{"_id":{"$oid":"61f34674f32bcfe23f6ef6e3"},"answer":"look at the x axis find the 12pm spot and look to see if any dots are on that line","block":"triangular_testing","condition":"111","experiment":"2YP3","graph":"triangular","internal_node_id":"0.0-9.0-0.0","q":16,"rt":51991,"session":"a16145321","subject":"PFFEV","time_elapsed":1037756,"trial_index":22,"trial_type":"html","url":"../views/src/external/stimulus.html"},{"_id":{"$oid":"61f34674f32bcfe23f6ef717"},"answer":"Find 12 PM on the X-axis and follow the line up to the right.","block":"triangular_testing","condition":"121","experiment":"2YP3","graph":"triangular","internal_node_id":"0.0-9.0-0.0","q":16,"rt":42518,"session":"a15386946","subject":"NH0FO","time_elapsed":647328,"trial_index":22,"trial_type":"html","url":"../views/src/external/stimulus.html"},{"_id":{"$oid":"61f34674f32bcfe23f6ef731"},"answer":"Looking at the X axis, find 12 PM and following up in a straight line, see what dots fall on that straight line (in this case, F and B)","block":"triangular_testing","condition":"111","experiment":"2YP3","graph":"triangular","internal_node_id":"0.0-9.0-0.0","q":16,"rt":68918,"session":"a15865479","subject":"XG38D","time_elapsed":641445,"trial_index":22,"trial_type":"html","url":"../views/src/external/stimulus.html"},{"_id":{"$oid":"61f34674f32bcfe23f6ef74b"},"answer":"Choose a point that is diagonal to the x-axis of 12","block":"triangular_testing","condition":"121","experiment":"2YP3","graph":"triangular","internal_node_id":"0.0-9.0-0.0","q":16,"rt":83883,"session":"a16041987","subject":"N36VM","time_elapsed":824314,"trial_index":22,"trial_type":"html","url":"../views/src/external/stimulus.html"},{"_id":{"$oid":"61f34674f32bcfe23f6ef765"},"answer":"By looking at which plot points align with 12pm on the y axis","block":"triangular_testing","condition":"111","experiment":"2YP3","graph":"triangular","internal_node_id":"0.0-9.0-0.0","q":16,"rt":32223,"session":"a16677006","subject":"7METL","time_elapsed":330179,"trial_index":22,"trial_type":"html","url":"../views/src/external/stimulus.html"},{"_id":{"$oid":"61f34674f32bcfe23f6ef799"},"answer":"You would use the x-axis label, ID 12pm and see which ones fall on that point","block":"triangular_testing","condition":"111","experiment":"2YP3","graph":"triangular","internal_node_id":"0.0-9.0-0.0","q":16,"rt":24246,"session":"a15826500\na15826500\na15826500","subject":"XV7KZ","time_elapsed":513007,"trial_index":22,"trial_type":"html","url":"../views/src/external/stimulus.html"},{"_id":{"$oid":"61f34674f32bcfe23f6ef7b3"},"answer":"The diagonal line on the right determines that it is the starting time so from 12 pm go up and the two points on the right leaning diagonal line are L and M","block":"triangular_testing","condition":"111","experiment":"2YP3","graph":"triangular","internal_node_id":"0.0-9.0-0.0","q":16,"rt":86180,"session":"a15049392\na15049392","subject":"BASO5","time_elapsed":500598,"trial_index":22,"trial_type":"html","url":"../views/src/external/stimulus.html"},{"_id":{"$oid":"61f34674f32bcfe23f6ef7e7"},"answer":"The starting point is on the left side of each number. Therefore events M and L begin at 12pm","block":"triangular_testing","condition":"111","experiment":"2YP3","graph":"triangular","internal_node_id":"0.0-9.0-0.0","q":16,"rt":52520,"session":"a16578015","subject":"YUWCZ","time_elapsed":834031,"trial_index":22,"trial_type":"html","url":"../views/src/external/stimulus.html"},{"_id":{"$oid":"61f34674f32bcfe23f6ef801"},"answer":"You start at the diagonal line connected to 12Pm on the horizontal axis and follow it up and to the right and whatever points that line intersects with is a shift that starts at 12 pm. It would be M and L","block":"triangular_testing","condition":"121","experiment":"2YP3","graph":"triangular","internal_node_id":"0.0-9.0-0.0","q":16,"rt":98921,"session":"a16806645","subject":"CN995","time_elapsed":791895,"trial_index":22,"trial_type":"html","url":"../views/src/external/stimulus.html"},{"_id":{"$oid":"61f34674f32bcfe23f6ef81b"},"answer":"the horizontal line pointing towards the right that begins at 12pm and end at 8 hours is the line where all the shifts that begin at 12 can be found.","block":"triangular_testing","condition":"111","experiment":"2YP3","graph":"triangular","internal_node_id":"0.0-9.0-0.0","q":16,"rt":66363,"session":"a16148682","subject":"98R7E","time_elapsed":769016,"trial_index":22,"trial_type":"html","url":"../views/src/external/stimulus.html"},{"_id":{"$oid":"61f34674f32bcfe23f6ef835"},"answer":"Just look at which dots that show on the 12 pm axis","block":"triangular_testing","condition":"111","experiment":"2YP3","graph":"triangular","internal_node_id":"0.0-9.0-0.0","q":16,"rt":90650,"session":"a16686690\n16686690\n16686690","subject":"ZZNSP","time_elapsed":1134603,"trial_index":22,"trial_type":"html","url":"../views/src/external/stimulus.html"},{"_id":{"$oid":"61f34674f32bcfe23f6ef84f"},"answer":"I looked at the dots that were lined up with the 12pm tick mark\n","block":"triangular_testing","condition":"111","experiment":"2YP3","graph":"triangular","internal_node_id":"0.0-9.0-0.0","q":16,"rt":156159,"session":"a15585339","subject":"77W0T","time_elapsed":1076925,"trial_index":22,"trial_type":"html","url":"../views/src/external/stimulus.html"},{"_id":{"$oid":"61f34674f32bcfe23f6ef869"},"answer":"Look at the x-axis and go to 12 then go up and see which letters are on that grid \\.","block":"triangular_testing","condition":"111","experiment":"2YP3","graph":"triangular","internal_node_id":"0.0-9.0-0.0","q":16,"rt":42214,"session":"a16144697","subject":"PY424","time_elapsed":723961,"trial_index":22,"trial_type":"html","url":"../views/src/external/stimulus.html"},{"_id":{"$oid":"61f34674f32bcfe23f6ef883"},"answer":"the point where lines with a positive slope begin represent start time. If you go to 12 pm and follow the line with a positive slope you will find that M and L start at 12 pm ","block":"triangular_testing","condition":"111","experiment":"2YP3","graph":"triangular","internal_node_id":"0.0-9.0-0.0","q":16,"rt":123957,"session":"a15526867","subject":"N5NRY","time_elapsed":679475,"trial_index":22,"trial_type":"html","url":"../views/src/external/stimulus.html"},{"_id":{"$oid":"61f34674f32bcfe23f6ef89d"},"answer":"Start at the 12pm mark on the x-axis and follow the diagonal line that is going up and to the right. All of the points that are on that diagonal line are events that start at 12pm. ","block":"triangular_testing","condition":"121","experiment":"2YP3","graph":"triangular","internal_node_id":"0.0-9.0-0.0","q":16,"rt":161695,"session":"a16263989","subject":"QXNXR","time_elapsed":866350,"trial_index":22,"trial_type":"html","url":"../views/src/external/stimulus.html"},{"_id":{"$oid":"61f34674f32bcfe23f6ef8b7"},"answer":"find 12 pm on the graph then follow the line pointing to the right, all dots along that line start at 12 pm","block":"triangular_testing","condition":"121","experiment":"2YP3","graph":"triangular","internal_node_id":"0.0-9.0-0.0","q":16,"rt":37437,"session":"a16648429","subject":"MAJW8","time_elapsed":567540,"trial_index":22,"trial_type":"html","url":"../views/src/external/stimulus.html"},{"_id":{"$oid":"61f34674f32bcfe23f6ef8d1"},"answer":"To see if there are any spots on the top of the 12 pm.","block":"triangular_testing","condition":"111","experiment":"2YP3","graph":"triangular","internal_node_id":"0.0-9.0-0.0","q":16,"rt":65474,"session":"a6125989","subject":"DMUWM","time_elapsed":1227960,"trial_index":22,"trial_type":"html","url":"../views/src/external/stimulus.html"},{"_id":{"$oid":"61f34674f32bcfe23f6ef8eb"},"answer":"On the x-axis, locate 12PM and follow the line up going in an upward right direction. Shifts M and L starts at 12PM.","block":"triangular_testing","condition":"221","experiment":"2YP3","graph":"triangular","internal_node_id":"0.0-9.0-0.0","q":16,"rt":118676,"session":"a15480541","subject":"Y9SMP","time_elapsed":1236779,"trial_index":22,"trial_type":"html","url":"../views/src/external/stimulus.html"},{"_id":{"$oid":"61f34674f32bcfe23f6ef905"},"answer":"Look at the x-axis and count up from 12 PM on the axis.","block":"triangular_testing","condition":"111","experiment":"2YP3","graph":"triangular","internal_node_id":"0.0-9.0-0.0","q":16,"rt":29434,"session":"w17156565","subject":"SG6TQ","time_elapsed":608728,"trial_index":22,"trial_type":"html","url":"../views/src/external/stimulus.html"},{"_id":{"$oid":"61f34674f32bcfe23f6ef91f"},"answer":"Looking at the duration and adding onto the time of the start of a shift.","block":"triangular_testing","condition":"121","experiment":"2YP3","graph":"triangular","internal_node_id":"0.0-9.0-0.0","q":16,"rt":58883,"session":"a16759561","subject":"1JW7Y","time_elapsed":1111307,"trial_index":22,"trial_type":"html","url":"../views/src/external/stimulus.html"},{"_id":{"$oid":"61f34674f32bcfe23f6ef939"},"answer":"The dot under the column of 12 PM determines when the event starts","block":"triangular_testing","condition":"121","experiment":"2YP3","graph":"triangular","internal_node_id":"0.0-9.0-0.0","q":16,"rt":23402,"session":"a15399879","subject":"ARL8H","time_elapsed":868984,"trial_index":22,"trial_type":"html","url":"../views/src/external/stimulus.html"},{"_id":{"$oid":"61f34674f32bcfe23f6ef953"},"answer":"x-axis, navigate to 12pm, follow the line starting from 12 and follow it diagonally up and left, line hits M and hits L","block":"triangular_testing","condition":"321","experiment":"2YP3","graph":"triangular","internal_node_id":"0.0-9.0-0.0","q":16,"rt":60374,"session":"a15904376","subject":"1KLRO","time_elapsed":466061,"trial_index":22,"trial_type":"html","url":"../views/src/external/stimulus.html"},{"_id":{"$oid":"61f34674f32bcfe23f6ef96d"},"answer":"Each point represents the letters coffee break and going down the line to the left side represents start time, therefore the letters that start at 12pm are M and L","block":"triangular_testing","condition":"321","experiment":"2YP3","graph":"triangular","internal_node_id":"0.0-9.0-0.0","q":16,"rt":140477,"session":"a16143560","subject":"WZMMU","time_elapsed":706556,"trial_index":22,"trial_type":"html","url":"../views/src/external/stimulus.html"},{"_id":{"$oid":"61f34674f32bcfe23f6ef987"},"answer":"Look at the x axis to see the time of day look at 12pm and then see which letters line up","block":"triangular_testing","condition":"111","experiment":"2YP3","graph":"triangular","internal_node_id":"0.0-9.0-0.0","q":16,"rt":128633,"session":"a15767120","subject":"M9WY5","time_elapsed":991579,"trial_index":22,"trial_type":"html","url":"../views/src/external/stimulus.html"},{"_id":{"$oid":"61f34674f32bcfe23f6ef9a1"},"answer":"SeeSee is the left side of a triangle starts at 12pm","block":"triangular_testing","condition":"321","experiment":"2YP3","graph":"triangular","internal_node_id":"0.0-9.0-0.0","q":16,"rt":59323,"session":"a17129477","subject":"SQKR9","time_elapsed":825824,"trial_index":22,"trial_type":"html","url":"../views/src/external/stimulus.html"},{"_id":{"$oid":"61f34674f32bcfe23f6ef9bb"},"answer":"You determine the starting of an event by looking at the x-axis, \"Start and End Time\", and looking which ones start at 12 pm.","block":"triangular_testing","condition":"121","experiment":"2YP3","graph":"triangular","internal_node_id":"0.0-9.0-0.0","q":16,"rt":100422,"session":"a15920946","subject":"N8PCJ","time_elapsed":1707308,"trial_index":22,"trial_type":"html","url":"../views/src/external/stimulus.html"},{"_id":{"$oid":"61f34674f32bcfe23f6ef9d5"},"answer":"B and F start work\n","block":"triangular_testing","condition":"321","experiment":"2YP3","graph":"triangular","internal_node_id":"0.0-9.0-0.0","q":16,"rt":14912,"session":"a17169808","subject":"M53XH","time_elapsed":461772,"trial_index":22,"trial_type":"html","url":"../views/src/external/stimulus.html"},{"_id":{"$oid":"61f34674f32bcfe23f6ee2dd"},"answer":"F","axis":"Orthogonal-XInside-YFull","clicks":3,"condition":"211","correct":1,"explicit":2,"impasse":1,"orth_correct":0,"q":1,"question":"starttime","rt":48093,"session":"a16308330","subject":"WLO69"},{"_id":{"$oid":"61f34674f32bcfe23f6ee2de"},"answer":"K","axis":"Orthogonal-XInside-YFull","clicks":1.5,"condition":"211","correct":1,"explicit":2,"impasse":1,"orth_correct":0,"q":2,"question":"starts","rt":15283,"session":"a16308330","subject":"WLO69"},{"_id":{"$oid":"61f34674f32bcfe23f6ee2df"},"answer":"F","axis":"Orthogonal-XInside-YFull","clicks":1,"condition":"211","correct":1,"explicit":2,"impasse":1,"orth_correct":0,"q":3,"question":"meets","rt":19684,"session":"a16308330","subject":"WLO69"},{"_id":{"$oid":"61f34674f32bcfe23f6ee2e0"},"answer":"H","axis":"Orthogonal-XInside-YFull","clicks":1,"condition":"211","correct":1,"explicit":2,"impasse":1,"orth_correct":0,"q":4,"question":"endtime","rt":9861,"session":"a16308330","subject":"WLO69"},{"_id":{"$oid":"61f34674f32bcfe23f6ee2e1"},"answer":"O","axis":"Orthogonal-XInside-YFull","clicks":1,"condition":"211","correct":1,"explicit":2,"impasse":1,"orth_correct":0,"q":5,"question":"midpoint","rt":28342,"session":"a16308330","subject":"WLO69"},{"_id":{"$oid":"61f34674f32bcfe23f6ee2e2"},"answer":"EG","axis":"Orthogonal-XInside-YFull","clicks":2,"condition":"211","correct":1,"explicit":2,"impasse":1,"orth_correct":1,"q":6,"question":"duration","rt":11082,"session":"a16308330","subject":"WLO69"},{"_id":{"$oid":"61f34674f32bcfe23f6ee2e3"},"answer":"XO","axis":"Orthogonal-XInside-YFull","clicks":2,"condition":"211","correct":1,"explicit":2,"impasse":1,"orth_correct":0,"q":7,"question":"duration+starts","rt":32911,"session":"a16308330","subject":"WLO69"},{"_id":{"$oid":"61f34674f32bcfe23f6ee2e4"},"answer":"AGK","axis":"Orthogonal-XInside-YFull","clicks":3,"condition":"211","correct":0,"explicit":2,"impasse":1,"orth_correct":0,"q":8,"question":"duration+contained","rt":52836,"session":"a16308330","subject":"WLO69"},{"_id":{"$oid":"61f34674f32bcfe23f6ee2e5"},"answer":"I","axis":"Orthogonal-XInside-YFull","clicks":1,"condition":"211","correct":1,"explicit":2,"impasse":1,"orth_correct":1,"q":9,"question":"starttime+before+endtime+during","rt":38247,"session":"a16308330","subject":"WLO69"},{"_id":{"$oid":"61f34674f32bcfe23f6ee2e6"},"answer":"E","axis":"Orthogonal-XInside-YFull","clicks":1,"condition":"211","correct":1,"explicit":2,"impasse":1,"orth_correct":0,"q":10,"question":"ends","rt":9870,"session":"a16308330","subject":"WLO69"},{"_id":{"$oid":"61f34674f32bcfe23f6ee2e7"},"answer":"ML","axis":"Orthogonal-XInside-YFull","clicks":2,"condition":"211","correct":1,"explicit":2,"impasse":1,"orth_correct":0,"q":11,"question":"starttime","rt":11067,"session":"a16308330","subject":"WLO69"},{"_id":{"$oid":"61f34674f32bcfe23f6ee2e8"},"answer":"G","axis":"Orthogonal-XInside-YFull","clicks":1,"condition":"211","correct":1,"explicit":2,"impasse":1,"orth_correct":0,"q":12,"question":"starts","rt":13115,"session":"a16308330","subject":"WLO69"},{"_id":{"$oid":"61f34674f32bcfe23f6ee2e9"},"answer":"EF","axis":"Orthogonal-XInside-YFull","clicks":2.5,"condition":"211","correct":1,"explicit":2,"impasse":1,"orth_correct":0,"q":13,"question":"meets","rt":18327,"session":"a16308330","subject":"WLO69"},{"_id":{"$oid":"61f34674f32bcfe23f6ee2ea"},"answer":"X","axis":"Orthogonal-XInside-YFull","clicks":1,"condition":"211","correct":1,"explicit":2,"impasse":1,"orth_correct":0,"q":14,"question":"endtime","rt":8748,"session":"a16308330","subject":"WLO69"},{"_id":{"$oid":"61f34674f32bcfe23f6ee2eb"},"answer":"KX","axis":"Orthogonal-XInside-YFull","clicks":2.5,"condition":"211","correct":1,"explicit":2,"impasse":1,"orth_correct":0,"q":15,"question":"midpoint","rt":13899,"session":"a16308330","subject":"WLO69"},{"_id":{"$oid":"61f34674f32bcfe23f6ee2f6"},"answer":"","axis":"Orthogonal-XInside-YFull","clicks":0,"condition":"121\n121","correct":0,"explicit":1,"impasse":2,"orth_correct":0,"q":1,"question":"starttime","rt":30562,"session":"a1677674","subject":"63VL0"},{"_id":{"$oid":"61f34674f32bcfe23f6ee2f7"},"answer":"K","axis":"Orthogonal-XInside-YFull","clicks":1,"condition":"121\n121","correct":1,"explicit":1,"impasse":2,"orth_correct":0,"q":2,"question":"starts","rt":42611,"session":"a1677674","subject":"63VL0"},{"_id":{"$oid":"61f34674f32bcfe23f6ee2f8"},"answer":"F","axis":"Orthogonal-XInside-YFull","clicks":1,"condition":"121\n121","correct":1,"explicit":1,"impasse":2,"orth_correct":0,"q":3,"question":"meets","rt":23208,"session":"a1677674","subject":"63VL0"},{"_id":{"$oid":"61f34674f32bcfe23f6ee2f9"},"answer":"D","axis":"Orthogonal-XInside-YFull","clicks":1,"condition":"121\n121","correct":0,"explicit":1,"impasse":2,"orth_correct":0,"q":4,"question":"endtime","rt":13857,"session":"a1677674","subject":"63VL0"},{"_id":{"$oid":"61f34674f32bcfe23f6ee2fa"},"answer":"","axis":"Orthogonal-XInside-YFull","clicks":0,"condition":"121\n121","correct":0,"explicit":1,"impasse":2,"orth_correct":0,"q":5,"question":"midpoint","rt":36218,"session":"a1677674","subject":"63VL0"},{"_id":{"$oid":"61f34674f32bcfe23f6ee2fb"},"answer":"EG","axis":"Orthogonal-XInside-YFull","clicks":2,"condition":"121\n121","correct":1,"explicit":1,"impasse":2,"orth_correct":1,"q":6,"question":"duration","rt":11258,"session":"a1677674","subject":"63VL0"},{"_id":{"$oid":"61f34674f32bcfe23f6ee2fc"},"answer":"XO","axis":"Orthogonal-XInside-YFull","clicks":2,"condition":"121\n121","correct":1,"explicit":1,"impasse":2,"orth_correct":0,"q":7,"question":"duration+starts","rt":25782,"session":"a1677674","subject":"63VL0"},{"_id":{"$oid":"61f34674f32bcfe23f6ee2fd"},"answer":"G","axis":"Orthogonal-XInside-YFull","clicks":1.5,"condition":"121\n121","correct":1,"explicit":1,"impasse":2,"orth_correct":0,"q":8,"question":"duration+contained","rt":57085,"session":"a1677674","subject":"63VL0"},{"_id":{"$oid":"61f34674f32bcfe23f6ee2fe"},"answer":"IEM","axis":"Orthogonal-XInside-YFull","clicks":3,"condition":"121\n121","correct":0,"explicit":1,"impasse":2,"orth_correct":0,"q":9,"question":"starttime+before+endtime+during","rt":69163,"session":"a1677674","subject":"63VL0"},{"_id":{"$oid":"61f34674f32bcfe23f6ee2ff"},"answer":"E","axis":"Orthogonal-XInside-YFull","clicks":1,"condition":"121\n121","correct":1,"explicit":1,"impasse":2,"orth_correct":0,"q":10,"question":"ends","rt":9011,"session":"a1677674","subject":"63VL0"},{"_id":{"$oid":"61f34674f32bcfe23f6ee300"},"answer":"ML","axis":"Orthogonal-XInside-YFull","clicks":2,"condition":"121\n121","correct":1,"explicit":1,"impasse":2,"orth_correct":0,"q":11,"question":"starttime","rt":22961,"session":"a1677674","subject":"63VL0"},{"_id":{"$oid":"61f34674f32bcfe23f6ee301"},"answer":"G","axis":"Orthogonal-XInside-YFull","clicks":1,"condition":"121\n121","correct":1,"explicit":1,"impasse":2,"orth_correct":0,"q":12,"question":"starts","rt":8279,"session":"a1677674","subject":"63VL0"},{"_id":{"$oid":"61f34674f32bcfe23f6ee302"},"answer":"EF","axis":"Orthogonal-XInside-YFull","clicks":3,"condition":"121\n121","correct":1,"explicit":1,"impasse":2,"orth_correct":0,"q":13,"question":"meets","rt":21448,"session":"a1677674","subject":"63VL0"},{"_id":{"$oid":"61f34674f32bcfe23f6ee303"},"answer":"X","axis":"Orthogonal-XInside-YFull","clicks":1,"condition":"121\n121","correct":1,"explicit":1,"impasse":2,"orth_correct":0,"q":14,"question":"endtime","rt":11658,"session":"a1677674","subject":"63VL0"},{"_id":{"$oid":"61f34674f32bcfe23f6ee304"},"answer":"KX","axis":"Orthogonal-XInside-YFull","clicks":2,"condition":"121\n121","correct":1,"explicit":1,"impasse":2,"orth_correct":0,"q":15,"question":"midpoint","rt":25950,"session":"a1677674","subject":"63VL0"},{"_id":{"$oid":"61f34674f32bcfe23f6ee30f"},"answer":"F","axis":"Orthogonal-XInside-YFull","clicks":1,"condition":"221","correct":1,"explicit":2,"impasse":2,"orth_correct":0,"q":1,"question":"starttime","rt":42324,"session":"a16348482","subject":"LZSME"},{"_id":{"$oid":"61f34674f32bcfe23f6ee310"},"answer":"K","axis":"Orthogonal-XInside-YFull","clicks":1,"condition":"221","correct":1,"explicit":2,"impasse":2,"orth_correct":0,"q":2,"question":"starts","rt":25644,"session":"a16348482","subject":"LZSME"},{"_id":{"$oid":"61f34674f32bcfe23f6ee311"},"answer":"F","axis":"Orthogonal-XInside-YFull","clicks":1.5,"condition":"221","correct":1,"explicit":2,"impasse":2,"orth_correct":0,"q":3,"question":"meets","rt":17536,"session":"a16348482","subject":"LZSME"},{"_id":{"$oid":"61f34674f32bcfe23f6ee312"},"answer":"H","axis":"Orthogonal-XInside-YFull","clicks":1,"condition":"221","correct":1,"explicit":2,"impasse":2,"orth_correct":0,"q":4,"question":"endtime","rt":17241,"session":"a16348482","subject":"LZSME"},{"_id":{"$oid":"61f34674f32bcfe23f6ee313"},"answer":"A","axis":"Orthogonal-XInside-YFull","clicks":1,"condition":"221","correct":1,"explicit":2,"impasse":2,"orth_correct":0,"q":5,"question":"midpoint","rt":58627,"session":"a16348482","subject":"LZSME"},{"_id":{"$oid":"61f34674f32bcfe23f6ee314"},"answer":"EG","axis":"Orthogonal-XInside-YFull","clicks":2,"condition":"221","correct":1,"explicit":2,"impasse":2,"orth_correct":1,"q":6,"question":"duration","rt":33820,"session":"a16348482","subject":"LZSME"},{"_id":{"$oid":"61f34674f32bcfe23f6ee315"},"answer":"XO","axis":"Orthogonal-XInside-YFull","clicks":7,"condition":"221","correct":1,"explicit":2,"impasse":2,"orth_correct":0,"q":7,"question":"duration+starts","rt":37382,"session":"a16348482","subject":"LZSME"},{"_id":{"$oid":"61f34674f32bcfe23f6ee316"},"answer":"C","axis":"Orthogonal-XInside-YFull","clicks":1,"condition":"221","correct":0,"explicit":2,"impasse":2,"orth_correct":0,"q":8,"question":"duration+contained","rt":47164,"session":"a16348482","subject":"LZSME"},{"_id":{"$oid":"61f34674f32bcfe23f6ee317"},"answer":"I","axis":"Orthogonal-XInside-YFull","clicks":1.5,"condition":"221","correct":1,"explicit":2,"impasse":2,"orth_correct":1,"q":9,"question":"starttime+before+endtime+during","rt":37580,"session":"a16348482","subject":"LZSME"},{"_id":{"$oid":"61f34674f32bcfe23f6ee318"},"answer":"E","axis":"Orthogonal-XInside-YFull","clicks":1,"condition":"221","correct":1,"explicit":2,"impasse":2,"orth_correct":0,"q":10,"question":"ends","rt":13550,"session":"a16348482","subject":"LZSME"},{"_id":{"$oid":"61f34674f32bcfe23f6ee319"},"answer":"ML","axis":"Orthogonal-XInside-YFull","clicks":2,"condition":"221","correct":1,"explicit":2,"impasse":2,"orth_correct":0,"q":11,"question":"starttime","rt":11597,"session":"a16348482","subject":"LZSME"},{"_id":{"$oid":"61f34674f32bcfe23f6ee31a"},"answer":"G","axis":"Orthogonal-XInside-YFull","clicks":1,"condition":"221","correct":1,"explicit":2,"impasse":2,"orth_correct":0,"q":12,"question":"starts","rt":7589,"session":"a16348482","subject":"LZSME"},{"_id":{"$oid":"61f34674f32bcfe23f6ee31b"},"answer":"F","axis":"Orthogonal-XInside-YFull","clicks":1.5,"condition":"221","correct":0,"explicit":2,"impasse":2,"orth_correct":0,"q":13,"question":"meets","rt":11700,"session":"a16348482","subject":"LZSME"},{"_id":{"$oid":"61f34674f32bcfe23f6ee31c"},"answer":"X","axis":"Orthogonal-XInside-YFull","clicks":2,"condition":"221","correct":1,"explicit":2,"impasse":2,"orth_correct":0,"q":14,"question":"endtime","rt":11311,"session":"a16348482","subject":"LZSME"},{"_id":{"$oid":"61f34674f32bcfe23f6ee31d"},"answer":"X","axis":"Orthogonal-XInside-YFull","clicks":1,"condition":"221","correct":0,"explicit":2,"impasse":2,"orth_correct":0,"q":15,"question":"midpoint","rt":20280,"session":"a16348482","subject":"LZSME"},{"_id":{"$oid":"61f34674f32bcfe23f6ee328"},"answer":"F","axis":"Orthogonal-XInside-YFull","clicks":1,"condition":"221","correct":1,"explicit":2,"impasse":2,"orth_correct":0,"q":1,"question":"starttime","rt":15027,"session":"a16128348","subject":"YRELO"},{"_id":{"$oid":"61f34674f32bcfe23f6ee329"},"answer":"K","axis":"Orthogonal-XInside-YFull","clicks":1,"condition":"221","correct":1,"explicit":2,"impasse":2,"orth_correct":0,"q":2,"question":"starts","rt":10937,"session":"a16128348","subject":"YRELO"},{"_id":{"$oid":"61f34674f32bcfe23f6ee32a"},"answer":"F","axis":"Orthogonal-XInside-YFull","clicks":1,"condition":"221","correct":1,"explicit":2,"impasse":2,"orth_correct":0,"q":3,"question":"meets","rt":16942,"session":"a16128348","subject":"YRELO"},{"_id":{"$oid":"61f34674f32bcfe23f6ee32b"},"answer":"H","axis":"Orthogonal-XInside-YFull","clicks":1,"condition":"221","correct":1,"explicit":2,"impasse":2,"orth_correct":0,"q":4,"question":"endtime","rt":43898,"session":"a16128348","subject":"YRELO"},{"_id":{"$oid":"61f34674f32bcfe23f6ee32c"},"answer":"A","axis":"Orthogonal-XInside-YFull","clicks":1,"condition":"221","correct":1,"explicit":2,"impasse":2,"orth_correct":0,"q":5,"question":"midpoint","rt":29984,"session":"a16128348","subject":"YRELO"},{"_id":{"$oid":"61f34674f32bcfe23f6ee32d"},"answer":"EG","axis":"Orthogonal-XInside-YFull","clicks":2.5,"condition":"221","correct":1,"explicit":2,"impasse":2,"orth_correct":1,"q":6,"question":"duration","rt":19683,"session":"a16128348","subject":"YRELO"},{"_id":{"$oid":"61f34674f32bcfe23f6ee32e"},"answer":"XO","axis":"Orthogonal-XInside-YFull","clicks":2,"condition":"221","correct":1,"explicit":2,"impasse":2,"orth_correct":0,"q":7,"question":"duration+starts","rt":24543,"session":"a16128348","subject":"YRELO"},{"_id":{"$oid":"61f34674f32bcfe23f6ee32f"},"answer":"G","axis":"Orthogonal-XInside-YFull","clicks":1,"condition":"221","correct":1,"explicit":2,"impasse":2,"orth_correct":0,"q":8,"question":"duration+contained","rt":57486,"session":"a16128348","subject":"YRELO"},{"_id":{"$oid":"61f34674f32bcfe23f6ee330"},"answer":"E","axis":"Orthogonal-XInside-YFull","clicks":1.5,"condition":"221","correct":0,"explicit":2,"impasse":2,"orth_correct":0,"q":9,"question":"starttime+before+endtime+during","rt":20468,"session":"a16128348","subject":"YRELO"},{"_id":{"$oid":"61f34674f32bcfe23f6ee331"},"answer":"E","axis":"Orthogonal-XInside-YFull","clicks":1,"condition":"221","correct":1,"explicit":2,"impasse":2,"orth_correct":0,"q":10,"question":"ends","rt":10414,"session":"a16128348","subject":"YRELO"},{"_id":{"$oid":"61f34674f32bcfe23f6ee332"},"answer":"JM","axis":"Orthogonal-XInside-YFull","clicks":2,"condition":"221","correct":0,"explicit":2,"impasse":2,"orth_correct":0,"q":11,"question":"starttime","rt":10865,"session":"a16128348","subject":"YRELO"},{"_id":{"$oid":"61f34674f32bcfe23f6ee333"},"answer":"G","axis":"Orthogonal-XInside-YFull","clicks":1,"condition":"221","correct":1,"explicit":2,"impasse":2,"orth_correct":0,"q":12,"question":"starts","rt":17042,"session":"a16128348","subject":"YRELO"},{"_id":{"$oid":"61f34674f32bcfe23f6ee334"},"answer":"EF","axis":"Orthogonal-XInside-YFull","clicks":2,"condition":"221","correct":1,"explicit":2,"impasse":2,"orth_correct":0,"q":13,"question":"meets","rt":18577,"session":"a16128348","subject":"YRELO"},{"_id":{"$oid":"61f34674f32bcfe23f6ee335"},"answer":"X","axis":"Orthogonal-XInside-YFull","clicks":1,"condition":"221","correct":1,"explicit":2,"impasse":2,"orth_correct":0,"q":14,"question":"endtime","rt":7918,"session":"a16128348","subject":"YRELO"},{"_id":{"$oid":"61f34674f32bcfe23f6ee336"},"answer":"KX","axis":"Orthogonal-XInside-YFull","clicks":2,"condition":"221","correct":1,"explicit":2,"impasse":2,"orth_correct":0,"q":15,"question":"midpoint","rt":15224,"session":"a16128348","subject":"YRELO"},{"_id":{"$oid":"61f34674f32bcfe23f6ee341"},"answer":"F","axis":"Orthogonal-XInside-YFull","clicks":3,"condition":"211","correct":1,"explicit":2,"impasse":1,"orth_correct":0,"q":1,"question":"starttime","rt":45395,"session":"a15769204","subject":"47SB1"},{"_id":{"$oid":"61f34674f32bcfe23f6ee342"},"answer":"K","axis":"Orthogonal-XInside-YFull","clicks":1.5,"condition":"211","correct":1,"explicit":2,"impasse":1,"orth_correct":0,"q":2,"question":"starts","rt":10894,"session":"a15769204","subject":"47SB1"},{"_id":{"$oid":"61f34674f32bcfe23f6ee343"},"answer":"F","axis":"Orthogonal-XInside-YFull","clicks":1,"condition":"211","correct":1,"explicit":2,"impasse":1,"orth_correct":0,"q":3,"question":"meets","rt":7447,"session":"a15769204","subject":"47SB1"},{"_id":{"$oid":"61f34674f32bcfe23f6ee344"},"answer":"H","axis":"Orthogonal-XInside-YFull","clicks":1,"condition":"211","correct":1,"explicit":2,"impasse":1,"orth_correct":0,"q":4,"question":"endtime","rt":6532,"session":"a15769204","subject":"47SB1"},{"_id":{"$oid":"61f34674f32bcfe23f6ee345"},"answer":"O","axis":"Orthogonal-XInside-YFull","clicks":1,"condition":"211","correct":1,"explicit":2,"impasse":1,"orth_correct":0,"q":5,"question":"midpoint","rt":11844,"session":"a15769204","subject":"47SB1"},{"_id":{"$oid":"61f34674f32bcfe23f6ee346"},"answer":"EG","axis":"Orthogonal-XInside-YFull","clicks":2,"condition":"211","correct":1,"explicit":2,"impasse":1,"orth_correct":1,"q":6,"question":"duration","rt":15177,"session":"a15769204","subject":"47SB1"},{"_id":{"$oid":"61f34674f32bcfe23f6ee347"},"answer":"XO","axis":"Orthogonal-XInside-YFull","clicks":2.5,"condition":"211","correct":1,"explicit":2,"impasse":1,"orth_correct":0,"q":7,"question":"duration+starts","rt":27216,"session":"a15769204","sub