[{"_id":{"$oid":"61a1944a732570cf33d020d5"},"answer":"the positively sloped lines indicate when shifts start. Find 12 pm and follow the positive sloped line up to the event point(s).","block":"triangular_testing","condition":"211","experiment":"2YP3","graph":"triangular","internal_node_id":"0.0-9.0-0.0","q":16,"rt":66538,"session":"a16308330","subject":"WLO69","time_elapsed":741140,"trial_index":22,"trial_type":"html","url":"../views/src/external/stimulus.html"},{"_id":{"$oid":"61a1944a732570cf33d020ee"},"answer":"To determine which events start at 12 pm, go to the x axis, and follow the lines that lean toward the right. If an event (or shift) is on that same line, then it must start at 12 pm.","block":"triangular_testing","condition":"121\n121","experiment":"2YP3","graph":"triangular","internal_node_id":"0.0-9.0-0.0","q":16,"rt":114012,"session":"a1677674","subject":"63VL0","time_elapsed":885253,"trial_index":22,"trial_type":"html","url":"../views/src/external/stimulus.html"},{"_id":{"$oid":"61a1944a732570cf33d02107"},"answer":"take 12 pm spot on x-axis as the left bottom mark as a triangle which has the shift name as the top mark.","block":"triangular_testing","condition":"221","experiment":"2YP3","graph":"triangular","internal_node_id":"0.0-9.0-0.0","q":16,"rt":75896,"session":"a16348482","subject":"LZSME","time_elapsed":2055459,"trial_index":22,"trial_type":"html","url":"../views/src/external/stimulus.html"},{"_id":{"$oid":"61a1944a732570cf33d02120"},"answer":"there are two lines starting at certain times, the one shooting to the right will meet some lines shooting to the left, when there is an event at their intersection, that event starts at 12pm","block":"triangular_testing","condition":"221","experiment":"2YP3","graph":"triangular","internal_node_id":"0.0-9.0-0.0","q":16,"rt":266019,"session":"a16128348","subject":"YRELO","time_elapsed":677849,"trial_index":22,"trial_type":"html","url":"../views/src/external/stimulus.html"},{"_id":{"$oid":"61a1944a732570cf33d02139"},"answer":"Look at 12pm on the time axis, and look at the line pointing diagonally to the right from 12. You will find M and L along this line, therefore they begin at 12. ","block":"triangular_testing","condition":"211","experiment":"2YP3","graph":"triangular","internal_node_id":"0.0-9.0-0.0","q":16,"rt":46054,"session":"a15769204","subject":"47SB1","time_elapsed":393624,"trial_index":22,"trial_type":"html","url":"../views/src/external/stimulus.html"},{"_id":{"$oid":"61a1944b732570cf33d0219d"},"answer":"find 12 on x axis follow diagonal line to the right","block":"triangular_testing","condition":"321","experiment":"2YP3","graph":"triangular","internal_node_id":"0.0-9.0-0.0","q":16,"rt":24765,"session":"a15458549","subject":"DGVGP","time_elapsed":498170,"trial_index":22,"trial_type":"html","url":"../views/src/external/stimulus.html"},{"_id":{"$oid":"61a1944b732570cf33d021b6"},"answer":"I begin with looking at the Horizontal axis (Start & end time) and go up from there ","block":"triangular_testing","condition":"311","experiment":"2YP3","graph":"triangular","internal_node_id":"0.0-9.0-0.0","q":16,"rt":51771,"session":"a13190800","subject":"TE7JZ","time_elapsed":2841539,"trial_index":22,"trial_type":"html","url":"../views/src/external/stimulus.html"},{"_id":{"$oid":"61a1944b732570cf33d021cf"},"answer":"go to 12 pm on the x axis and then move up the line towards the right till you see dots of the events","block":"triangular_testing","condition":"221","experiment":"2YP3","graph":"triangular","internal_node_id":"0.0-9.0-0.0","q":16,"rt":27514,"session":"a15435687","subject":"1H0SY","time_elapsed":472809,"trial_index":22,"trial_type":"html","url":"../views/src/external/stimulus.html"},{"_id":{"$oid":"61a1944b732570cf33d021e8"},"answer":"be","block":"triangular_testing","condition":"321","experiment":"2YP3","graph":"triangular","internal_node_id":"0.0-9.0-0.0","q":16,"rt":12946,"session":"a15839275","subject":"9PELV","time_elapsed":3607558,"trial_index":22,"trial_type":"html","url":"../views/src/external/stimulus.html"},{"_id":{"$oid":"61a1944b732570cf33d02201"},"answer":"Start on x axis, move right until 12pm, then go up on the line segment that starts at 12pm and goes up to the right (towards M), continue until end of line. M & L both start at 12pm because they both lay on the line up and right starting at 12pm.","block":"triangular_testing","condition":"221","experiment":"2YP3","graph":"triangular","internal_node_id":"0.0-9.0-0.0","q":16,"rt":66393,"session":"a16031916","subject":"UDSVX","time_elapsed":400576,"trial_index":22,"trial_type":"html","url":"../views/src/external/stimulus.html"},{"_id":{"$oid":"61a1944b732570cf33d0221a"},"answer":"I find 12pm on the X axis, then I take the diagonal on the right and follow it until I find dots M and L.","block":"triangular_testing","condition":"111","experiment":"2YP3","graph":"triangular","internal_node_id":"0.0-9.0-0.0","q":16,"rt":83496,"session":"hollanlab","subject":"5N035","time_elapsed":19949428,"trial_index":22,"trial_type":"html","url":"../views/src/external/stimulus.html"},{"_id":{"$oid":"61a1944b732570cf33d02233"},"answer":"On the X axis of the graph, the start of a shift is marked by the left side of a triangle formed by the 2 lines that emerge below each shift's dot on the graph","block":"triangular_testing","condition":"121","experiment":"2YP3","graph":"triangular","internal_node_id":"0.0-9.0-0.0","q":16,"rt":81749,"session":"a15673149","subject":"1SY41","time_elapsed":1245146,"trial_index":22,"trial_type":"html","url":"../views/src/external/stimulus.html"},{"_id":{"$oid":"61a1944b732570cf33d0224c"},"answer":"1. FIND 12 PM; 2. FOLLOW THE RIGHT, DIAGONAL LINE UP; 3. THESE SHIFTS START AT 12: M, L ","block":"triangular_testing","condition":"221\n221","experiment":"2YP3","graph":"triangular","internal_node_id":"0.0-9.0-0.0","q":16,"rt":45018,"session":"16132934","subject":"Q20EE","time_elapsed":439075,"trial_index":22,"trial_type":"html","url":"../views/src/external/stimulus.html"},{"_id":{"$oid":"61a1944b732570cf33d02265"},"answer":"1) Find 12pm on the horizontal axis 2) look at the diagonal line that starts from the 12pm point on the horizontal axis and that goes upwards to the right 3) the lines that lay on that diagonal line are the events that start at 12pm - in this case it's M and L","block":"triangular_testing","condition":"321","experiment":"2YP3","graph":"triangular","internal_node_id":"0.0-9.0-0.0","q":16,"rt":124831,"session":"a15378348","subject":"ZV99C","time_elapsed":815002,"trial_index":22,"trial_type":"html","url":"../views/src/external/stimulus.html"},{"_id":{"$oid":"61a1944b732570cf33d0227e"},"answer":"You look at the x coordinate of the graph, start & and time, look for 12pm once you have located 12pm you move diagonally to the right moving upwards and search for the letters on that line when moving diagonally","block":"triangular_testing","condition":"211","experiment":"2YP3","graph":"triangular","internal_node_id":"0.0-9.0-0.0","q":16,"rt":123608,"session":"a15960387","subject":"SQ3V5","time_elapsed":1270077,"trial_index":22,"trial_type":"html","url":"../views/src/external/stimulus.html"},{"_id":{"$oid":"61a1944b732570cf33d02297"},"answer":"Follow the line to the left of 12 pm and see if there are any dots on it.","block":"triangular_testing","condition":"321","experiment":"2YP3","graph":"triangular","internal_node_id":"0.0-9.0-0.0","q":16,"rt":73076,"session":"a15928667","subject":"CPRP9","time_elapsed":881021,"trial_index":22,"trial_type":"html","url":"../views/src/external/stimulus.html"},{"_id":{"$oid":"61a1944b732570cf33d022b0"},"answer":"you go to 12 pm and then go diagonally right the whole time ","block":"triangular_testing","condition":"321","experiment":"2YP3","graph":"triangular","internal_node_id":"0.0-9.0-0.0","q":16,"rt":34748,"session":"a15543958","subject":"FW9D5","time_elapsed":487740,"trial_index":22,"trial_type":"html","url":"../views/src/external/stimulus.html"},{"_id":{"$oid":"61a1944b732570cf33d022c9"},"answer":"YoYou look at where the 12 is on the x axis and trace the line up that is pointed more right","block":"triangular_testing","condition":"221","experiment":"2YP3","graph":"triangular","internal_node_id":"0.0-9.0-0.0","q":16,"rt":72512,"session":"a15503974","subject":"0C5DM","time_elapsed":648891,"trial_index":22,"trial_type":"html","url":"../views/src/external/stimulus.html"},{"_id":{"$oid":"61a1944b732570cf33d022e2"},"answer":"start at 12pm on the x axis, take the northeast line and identify all the points along that line","block":"triangular_testing","condition":"321","experiment":"2YP3","graph":"triangular","internal_node_id":"0.0-9.0-0.0","q":16,"rt":40771,"session":"a15664520","subject":"07MCH","time_elapsed":414317,"trial_index":22,"trial_type":"html","url":"../views/src/external/stimulus.html"},{"_id":{"$oid":"61a1944b732570cf33d022fb"},"answer":"go to the 12 pm mark on horizontal axis, follow diagonal up towards right, any points on that line segment would be the shifts starting at 12pm","block":"triangular_testing","condition":"221\n221","experiment":"2YP3","graph":"triangular","internal_node_id":"0.0-9.0-0.0","q":16,"rt":78860,"session":"a15644634","subject":"SGEJ0","time_elapsed":685233,"trial_index":22,"trial_type":"html","url":"../views/src/external/stimulus.html"},{"_id":{"$oid":"61a1944b732570cf33d0232d"},"answer":"look at 12pm on x axis and follow line going up and to the right. Everything on that line starts at 12pm","block":"triangular_testing","condition":"111","experiment":"2YP3","graph":"triangular","internal_node_id":"0.0-9.0-0.0","q":16,"rt":49342,"session":"a16143137","subject":"LNVKO","time_elapsed":511343,"trial_index":22,"trial_type":"html","url":"../views/src/external/stimulus.html"},{"_id":{"$oid":"61a1944b732570cf33d02346"},"answer":"whichever line veering right starting at the 12pm point is the starting line, so anything plotted along that right leaning line starts at 12pm. ","block":"triangular_testing","condition":"221","experiment":"2YP3","graph":"triangular","internal_node_id":"0.0-9.0-0.0","q":16,"rt":75846,"session":"a15564584","subject":"GXWDP","time_elapsed":967726,"trial_index":22,"trial_type":"html","url":"../views/src/external/stimulus.html"},{"_id":{"$oid":"61a1944b732570cf33d0235f"},"answer":"Find 12 pm on the x axis and then follow the diagonal line upwards and rightwards\n","block":"triangular_testing","condition":"321","experiment":"2YP3","graph":"triangular","internal_node_id":"0.0-9.0-0.0","q":16,"rt":41533,"session":"a16294943","subject":"E0G9F","time_elapsed":707717,"trial_index":22,"trial_type":"html","url":"../views/src/external/stimulus.html"},{"_id":{"$oid":"61a1944c732570cf33d02378"},"answer":"I lI look at the x-axis (time of day), locate where 12 PM is and follow the diagonal line that slants to the right, locating any points along that line.","block":"triangular_testing","condition":"211","experiment":"2YP3","graph":"triangular","internal_node_id":"0.0-9.0-0.0","q":16,"rt":71025,"session":"a16622527","subject":"JPZWL","time_elapsed":501678,"trial_index":22,"trial_type":"html","url":"../views/src/external/stimulus.html"},{"_id":{"$oid":"61a1944c732570cf33d02391"},"answer":"Follow the line up and right that, 12pm to see what shifts are there","block":"triangular_testing","condition":"211","experiment":"2YP3","graph":"triangular","internal_node_id":"0.0-9.0-0.0","q":16,"rt":136888,"session":"a15505662","subject":"LCFZM","time_elapsed":938899,"trial_index":22,"trial_type":"html","url":"../views/src/external/stimulus.html"},{"_id":{"$oid":"61a1944c732570cf33d023aa"},"answer":"First locate 12pm on the x-axis the follow the diagonal to the right of it. Any event starting at that time will be along that line.","block":"triangular_testing","condition":"311","experiment":"2YP3","graph":"triangular","internal_node_id":"0.0-9.0-0.0","q":16,"rt":68105,"session":"a15815721","subject":"7K6V3","time_elapsed":582810,"trial_index":22,"trial_type":"html","url":"../views/src/external/stimulus.html"},{"_id":{"$oid":"61a1944c732570cf33d023c3"},"answer":"Go to 12pm on the x-axis and go upward to the right and see what points are on that diagonal line","block":"triangular_testing","condition":"221","experiment":"2YP3","graph":"triangular","internal_node_id":"0.0-9.0-0.0","q":16,"rt":75844,"session":"a15583685","subject":"KFXNR","time_elapsed":987587,"trial_index":22,"trial_type":"html","url":"../views/src/external/stimulus.html"},{"_id":{"$oid":"61a1944c732570cf33d023dc"},"answer":"The diagonal line from 12pm to the 8 hour duration line","block":"triangular_testing","condition":"221","experiment":"2YP3","graph":"triangular","internal_node_id":"0.0-9.0-0.0","q":16,"rt":44328,"session":"a15578823","subject":"U794E","time_elapsed":618851,"trial_index":22,"trial_type":"html","url":"../views/src/external/stimulus.html"},{"_id":{"$oid":"61a1944c732570cf33d023f5"},"answer":"follow the diagonal line","block":"triangular_testing","condition":"221","experiment":"2YP3","graph":"triangular","internal_node_id":"0.0-9.0-0.0","q":16,"rt":15579,"session":"a16176734","subject":"RRQXQ","time_elapsed":442355,"trial_index":22,"trial_type":"html","url":"../views/src/external/stimulus.html"},{"_id":{"$oid":"61a1944c732570cf33d0240e"},"answer":"Using the right most diagonal line that starts at 12pm.","block":"triangular_testing","condition":"221","experiment":"2YP3","graph":"triangular","internal_node_id":"0.0-9.0-0.0","q":16,"rt":34614,"session":"a15588293","subject":"B0QF0","time_elapsed":425648,"trial_index":22,"trial_type":"html","url":"../views/src/external/stimulus.html"},{"_id":{"$oid":"61a1944c732570cf33d02427"},"answer":"To determine what events start at 12 PM you go to the x axis that says 12 PM and you look at the right and left branches it has. This tells us that M and L both start at 12 PM even though they have different shift durations ","block":"triangular_testing","condition":"121","experiment":"2YP3","graph":"triangular","internal_node_id":"0.0-9.0-0.0","q":16,"rt":60457,"session":"a15428617","subject":"OUCFL","time_elapsed":656693,"trial_index":22,"trial_type":"html","url":"../views/src/external/stimulus.html"},{"_id":{"$oid":"61a1944c732570cf33d02441"},"answer":"I pick the letter closest to 12 PM on the graph","block":"triangular_testing","condition":"121","experiment":"2YP3","graph":"triangular","internal_node_id":"0.0-9.0-0.0","q":16,"rt":34947,"session":"a16577976","subject":"KT7ZF","time_elapsed":647232,"trial_index":22,"trial_type":"html","url":"../views/src/external/stimulus.html"},{"_id":{"$oid":"61a1944c732570cf33d0245b"},"answer":"gp to 12pm on the bottom of the graph and then trace up until you land on a dot","block":"triangular_testing","condition":"311","experiment":"2YP3","graph":"triangular","internal_node_id":"0.0-9.0-0.0","q":16,"rt":40051,"session":"a15504468","subject":"US1HX","time_elapsed":862312,"trial_index":22,"trial_type":"html","url":"../views/src/external/stimulus.html"},{"_id":{"$oid":"61a1944c732570cf33d02474"},"answer":"Locate 12 PM on the X-axis, then follow the diagonal line going upward-left. All points along that line start at 12 PM.","block":"triangular_testing","condition":"211","experiment":"2YP3","graph":"triangular","internal_node_id":"0.0-9.0-0.0","q":16,"rt":98391,"session":"a16623408","subject":"P1STY","time_elapsed":740649,"trial_index":22,"trial_type":"html","url":"../views/src/external/stimulus.html"},{"_id":{"$oid":"61a1944c732570cf33d0248d"},"answer":"At 12 pm B and F start shifts and J ends their shift.","block":"triangular_testing","condition":"111","experiment":"2YP3","graph":"triangular","internal_node_id":"0.0-9.0-0.0","q":16,"rt":53073,"session":"a16333285","subject":"ZL796","time_elapsed":692483,"trial_index":22,"trial_type":"html","url":"../views/src/external/stimulus.html"},{"_id":{"$oid":"61a1944c732570cf33d024a7"},"answer":"look at the dot and subtract the hours on the left by the time on the bottom","block":"triangular_testing","condition":"121","experiment":"2YP3","graph":"triangular","internal_node_id":"0.0-9.0-0.0","q":16,"rt":23859,"session":"a15515318\na15515318","subject":"ACEXT","time_elapsed":947995,"trial_index":22,"trial_type":"html","url":"../views/src/external/stimulus.html"},{"_id":{"$oid":"61a1944c732570cf33d024c1"},"answer":"The shifts that line up above 12pm on the x axis","block":"triangular_testing","condition":"111","experiment":"2YP3","graph":"triangular","internal_node_id":"0.0-9.0-0.0","q":16,"rt":45527,"session":"a16121250","subject":"SGTQJ","time_elapsed":466658,"trial_index":22,"trial_type":"html","url":"../views/src/external/stimulus.html"},{"_id":{"$oid":"61a1944c732570cf33d024db"},"answer":"LooLook at the X axis to where 12 pm is and then go up the y axis to determine which dots are marked. ","block":"triangular_testing","condition":"111","experiment":"2YP3","graph":"triangular","internal_node_id":"0.0-9.0-0.0","q":16,"rt":49604,"session":"a17213518\na17213518","subject":"WWMDF","time_elapsed":838353,"trial_index":22,"trial_type":"html","url":"../views/src/external/stimulus.html"},{"_id":{"$oid":"61a1944c732570cf33d024f5"},"answer":"Look at the X-axis for the dots corresponding with the time at 12","block":"triangular_testing","condition":"121","experiment":"2YP3","graph":"triangular","internal_node_id":"0.0-9.0-0.0","q":16,"rt":30404,"session":"a16561685","subject":"ALN2P","time_elapsed":614198,"trial_index":22,"trial_type":"html","url":"../views/src/external/stimulus.html"},{"_id":{"$oid":"61a1944c732570cf33d0250f"},"answer":"You can determine what event(s) start at 12pm by first looking at the times at the bottom of the chart. From there you can go upward from 12 and see what dots align.","block":"triangular_testing","condition":"111","experiment":"2YP3","graph":"triangular","internal_node_id":"0.0-9.0-0.0","q":16,"rt":40000,"session":"a15428815","subject":"TD0NU","time_elapsed":584711,"trial_index":22,"trial_type":"html","url":"../views/src/external/stimulus.html"},{"_id":{"$oid":"61a1944c732570cf33d02529"},"answer":"Which events start at the line angles up to the right at the number 12 on the x-axis start at 12 pm. ","block":"triangular_testing","condition":"111","experiment":"2YP3","graph":"triangular","internal_node_id":"0.0-9.0-0.0","q":16,"rt":43344,"session":"a16797648","subject":"431GR","time_elapsed":557465,"trial_index":22,"trial_type":"html","url":"../views/src/external/stimulus.html"},{"_id":{"$oid":"61a1944c732570cf33d02543"},"answer":"Find 12 PM on the x-axis. Trace a vertical line upwards from the 12 PM on the x-axis. All the points on that line begin at 12pm.","block":"triangular_testing","condition":"121","experiment":"2YP3","graph":"triangular","internal_node_id":"0.0-9.0-0.0","q":16,"rt":106930,"session":"a15882706","subject":"5TMTW","time_elapsed":742363,"trial_index":22,"trial_type":"html","url":"../views/src/external/stimulus.html"},{"_id":{"$oid":"61a1944c732570cf33d0255d"},"answer":"Drawing a line straight up from the x axis and the given time","block":"triangular_testing","condition":"121","experiment":"2YP3","graph":"triangular","internal_node_id":"0.0-9.0-0.0","q":16,"rt":36067,"session":"a16843950","subject":"QOR74","time_elapsed":754030,"trial_index":22,"trial_type":"html","url":"../views/src/external/stimulus.html"},{"_id":{"$oid":"61a1944c732570cf33d02577"},"answer":"draw a vertical line up from 12PM","block":"triangular_testing","condition":"121","experiment":"2YP3","graph":"triangular","internal_node_id":"0.0-9.0-0.0","q":16,"rt":33561,"session":"a15481598","subject":"HUNJ8","time_elapsed":509051,"trial_index":22,"trial_type":"html","url":"../views/src/external/stimulus.html"},{"_id":{"$oid":"61a1944c732570cf33d02591"},"answer":"I find 12pm on the horizontal axis and then follow the line that extends from 12pm to the upper right corner of the graph. In this case, M and L start at 12pm.","block":"triangular_testing","condition":"121","experiment":"2YP3","graph":"triangular","internal_node_id":"0.0-9.0-0.0","q":16,"rt":64935,"session":"a17236014","subject":"Q7A44","time_elapsed":983485,"trial_index":22,"trial_type":"html","url":"../views/src/external/stimulus.html"},{"_id":{"$oid":"61a1944c732570cf33d025ab"},"answer":"Find 12PM on the bottom axis and follow the diagonal line up and to the right, anything on that line starts at 12PM.","block":"triangular_testing","condition":"221","experiment":"2YP3","graph":"triangular","internal_node_id":"0.0-9.0-0.0","q":16,"rt":42677,"session":"a15462161","subject":"XZ05Q","time_elapsed":618089,"trial_index":22,"trial_type":"html","url":"../views/src/external/stimulus.html"},{"_id":{"$oid":"61a1944c732570cf33d025c4"},"answer":"SShifts B and G start at 12 pm","block":"triangular_testing","condition":"121","experiment":"2YP3","graph":"triangular","internal_node_id":"0.0-9.0-0.0","q":16,"rt":31335,"session":"a15461540","subject":"P83KE","time_elapsed":780054,"trial_index":22,"trial_type":"html","url":"../views/src/external/stimulus.html"},{"_id":{"$oid":"61a1944c732570cf33d025de"},"answer":"look at the 12 pm dash and look up","block":"triangular_testing","condition":"121","experiment":"2YP3","graph":"triangular","internal_node_id":"0.0-9.0-0.0","q":16,"rt":18911,"session":"a15407629","subject":"QVWU9","time_elapsed":382976,"trial_index":22,"trial_type":"html","url":"../views/src/external/stimulus.html"},{"_id":{"$oid":"61a1944c732570cf33d02612"},"answer":"To find what event(s) start at 12pm, find it on the x-axis, where time of day is located and follow the line in the diagram all the way up. You will find that M and L start at 12 but end at different times. ","block":"triangular_testing","condition":"121","experiment":"2YP3","graph":"triangular","internal_node_id":"0.0-9.0-0.0","q":16,"rt":105809,"session":"a16328170\na16328170","subject":"YAZM5","time_elapsed":1168112,"trial_index":22,"trial_type":"html","url":"../views/src/external/stimulus.html"},{"_id":{"$oid":"61a1944c732570cf33d02646"},"answer":"follow the 12 pm line that goes up towards the right. any points on that line starts at 12","block":"triangular_testing","condition":"121","experiment":"2YP3","graph":"triangular","internal_node_id":"0.0-9.0-0.0","q":16,"rt":27504,"session":"16114839","subject":"8DL90","time_elapsed":174531,"trial_index":22,"trial_type":"html","url":"../views/src/external/stimulus.html"},{"_id":{"$oid":"61a1944c732570cf33d02660"},"answer":"find 12 on the bottom and then climb diagonally to the right, so the shifts starting at 12 would be M and L ","block":"triangular_testing","condition":"121","experiment":"2YP3","graph":"triangular","internal_node_id":"0.0-9.0-0.0","q":16,"rt":42737,"session":"a16524240","subject":"57KJC","time_elapsed":507342,"trial_index":22,"trial_type":"html","url":"../views/src/external/stimulus.html"},{"_id":{"$oid":"61a1944c732570cf33d02694"},"answer":"vertical dots\n","block":"triangular_testing","condition":"111","experiment":"2YP3","graph":"triangular","internal_node_id":"0.0-9.0-0.0","q":16,"rt":10982,"session":"15862635","subject":"YK2A6","time_elapsed":356059,"trial_index":22,"trial_type":"html","url":"../views/src/external/stimulus.html"},{"_id":{"$oid":"61a1944c732570cf33d026ae"},"answer":"yyou have to look at the x axis of this graph and find where 12pm is. then you follow that point up the diagonal line until you hit a letter or letters. thoes letters or letter are the shifts or shift that starts at 12 pm","block":"triangular_testing","condition":"121","experiment":"2YP3","graph":"triangular","internal_node_id":"0.0-9.0-0.0","q":16,"rt":81648,"session":"a15857484","subject":"0YVPY","time_elapsed":717521,"trial_index":22,"trial_type":"html","url":"../views/src/external/stimulus.html"},{"_id":{"$oid":"61a1944c732570cf33d026c8"},"answer":"I Look at the line and go up to see which aligns with the 12 pm mark","block":"triangular_testing","condition":"121","experiment":"2YP3","graph":"triangular","internal_node_id":"0.0-9.0-0.0","q":16,"rt":31502,"session":"a15977973","subject":"ECJQV","time_elapsed":258626,"trial_index":22,"trial_type":"html","url":"../views/src/external/stimulus.html"},{"_id":{"$oid":"61a1944c732570cf33d026e2"},"answer":"Look at the x axis","block":"triangular_testing","condition":"121","experiment":"2YP3","graph":"triangular","internal_node_id":"0.0-9.0-0.0","q":16,"rt":8563,"session":"a16583212","subject":"LS93R","time_elapsed":365564,"trial_index":22,"trial_type":"html","url":"../views/src/external/stimulus.html"},{"_id":{"$oid":"61a1944c732570cf33d0274a"},"answer":"draw a vertical line from the 12 pm point and look at which events have start points that intersect with the line. In this case, B and F.\n","block":"triangular_testing","condition":"121","experiment":"2YP3","graph":"triangular","internal_node_id":"0.0-9.0-0.0","q":16,"rt":84236,"session":"a15992567","subject":"QNNZZ","time_elapsed":862798,"trial_index":22,"trial_type":"html","url":"../views/src/external/stimulus.html"},{"_id":{"$oid":"61a1944c732570cf33d02764"},"answer":"use the graph, find 12 on the x axis and go up","block":"triangular_testing","condition":"121","experiment":"2YP3","graph":"triangular","internal_node_id":"0.0-9.0-0.0","q":16,"rt":33291,"session":"a16811213","subject":"K3AE8","time_elapsed":1271358,"trial_index":22,"trial_type":"html","url":"../views/src/external/stimulus.html"},{"_id":{"$oid":"61a1944c732570cf33d027b2"},"answer":"If the data point is line up with 12 pm on the x axis, that is when it starts","block":"triangular_testing","condition":"121","experiment":"2YP3","graph":"triangular","internal_node_id":"0.0-9.0-0.0","q":16,"rt":59515,"session":"a15449379","subject":"G17YM","time_elapsed":613843,"trial_index":22,"trial_type":"html","url":"../views/src/external/stimulus.html"},{"_id":{"$oid":"61a1944c732570cf33d027cc"},"answer":"loolook at 12 pm on the x axis then move in a straight line upwards until coming to a dot","block":"triangular_testing","condition":"111","experiment":"2YP3","graph":"triangular","internal_node_id":"0.0-9.0-0.0","q":16,"rt":31606,"session":"a16254358","subject":"A9JCU","time_elapsed":646950,"trial_index":22,"trial_type":"html","url":"../views/src/external/stimulus.html"},{"_id":{"$oid":"61a1944c732570cf33d027e6"},"answer":"Look Look at the graph where it says 12p and then look at the line to the right to see which shifts start are 12pm. ","block":"triangular_testing","condition":"121","experiment":"2YP3","graph":"triangular","internal_node_id":"0.0-9.0-0.0","q":16,"rt":52697,"session":"a16219353","subject":"96GEP","time_elapsed":847727,"trial_index":22,"trial_type":"html","url":"../views/src/external/stimulus.html"},{"_id":{"$oid":"61a1944c732570cf33d02800"},"answer":"I look at the x axis, go to the 12pm time, and move up the graph. ","block":"triangular_testing","condition":"121","experiment":"2YP3","graph":"triangular","internal_node_id":"0.0-9.0-0.0","q":16,"rt":25899,"session":"a16622681","subject":"BR500","time_elapsed":484062,"trial_index":22,"trial_type":"html","url":"../views/src/external/stimulus.html"},{"_id":{"$oid":"61a1944c732570cf33d0281a"},"answer":"Shifts that start at 12pm are along the line that goes to the right starting from 12pm, meaning that M and L start at 12pm.","block":"triangular_testing","condition":"111","experiment":"2YP3","graph":"triangular","internal_node_id":"0.0-9.0-0.0","q":16,"rt":119852,"session":"17012262\na17012262","subject":"OFOB1","time_elapsed":749430,"trial_index":22,"trial_type":"html","url":"../views/src/external/stimulus.html"},{"_id":{"$oid":"61a1944d732570cf33d02834"},"answer":"You look at 12 pm on the x axis and look at the number above it that occur along the same line on the y axis.","block":"triangular_testing","condition":"121","experiment":"2YP3","graph":"triangular","internal_node_id":"0.0-9.0-0.0","q":16,"rt":29594,"session":"a16783696","subject":"98VDX","time_elapsed":756589,"trial_index":22,"trial_type":"html","url":"../views/src/external/stimulus.html"},{"_id":{"$oid":"61a1944d732570cf33d0284e"},"answer":"if the left line of the dot begins at 12pm","block":"triangular_testing","condition":"121","experiment":"2YP3","graph":"triangular","internal_node_id":"0.0-9.0-0.0","q":16,"rt":36163,"session":"a17235796","subject":"B44PE","time_elapsed":614489,"trial_index":22,"trial_type":"html","url":"../views/src/external/stimulus.html"},{"_id":{"$oid":"61a1944d732570cf33d02868"},"answer":"You look at B and F see they are parallel points to 12 pm.","block":"triangular_testing","condition":"121","experiment":"2YP3","graph":"triangular","internal_node_id":"0.0-9.0-0.0","q":16,"rt":31536,"session":"a15415850","subject":"VP6G3","time_elapsed":399145,"trial_index":22,"trial_type":"html","url":"../views/src/external/stimulus.html"},{"_id":{"$oid":"61a1944d732570cf33d02882"},"answer":"go to 12pm on the x axis and move up vertically to see which events are on that line","block":"triangular_testing","condition":"111","experiment":"2YP3","graph":"triangular","internal_node_id":"0.0-9.0-0.0","q":16,"rt":32320,"session":"a14821119\na14821119","subject":"QLO9H","time_elapsed":594055,"trial_index":22,"trial_type":"html","url":"../views/src/external/stimulus.html"},{"_id":{"$oid":"61a1944d732570cf33d0289c"},"answer":"go to 12pm on the X axis and go directly up to see which evnts are aligned ","block":"triangular_testing","condition":"111","experiment":"2YP3","graph":"triangular","internal_node_id":"0.0-9.0-0.0","q":16,"rt":22760,"session":"a14821119","subject":"5TXOT","time_elapsed":269796,"trial_index":22,"trial_type":"html","url":"../views/src/external/stimulus.html"},{"_id":{"$oid":"61a1944d732570cf33d028b6"},"answer":"I ignore the diagonal lines and look straight above to see which events are along the 12pm vertical line","block":"triangular_testing","condition":"121","experiment":"2YP3","graph":"triangular","internal_node_id":"0.0-9.0-0.0","q":16,"rt":28717,"session":"a16641170","subject":"E9SDE","time_elapsed":802754,"trial_index":22,"trial_type":"html","url":"../views/src/external/stimulus.html"},{"_id":{"$oid":"61a1944d732570cf33d0291e"},"answer":"Follow the line going up and to the right (diagonally) from the 12pm point on the x-axis. The points that fall on this line are shifts that start at 12pm.","block":"triangular_testing","condition":"111","experiment":"2YP3","graph":"triangular","internal_node_id":"0.0-9.0-0.0","q":16,"rt":165799,"session":"a16885269\na16885269","subject":"LAZ3T","time_elapsed":736443,"trial_index":22,"trial_type":"html","url":"../views/src/external/stimulus.html"},{"_id":{"$oid":"61a1944d732570cf33d02938"},"answer":"Whichever letters align with 12pm right above the horizontal axis (B and F in this case, based on my interpretation of the graph).","block":"triangular_testing","condition":"121","experiment":"2YP3","graph":"triangular","internal_node_id":"0.0-9.0-0.0","q":16,"rt":103063,"session":"a16413173","subject":"K9UQH","time_elapsed":2015618,"trial_index":22,"trial_type":"html","url":"../views/src/external/stimulus.html"},{"_id":{"$oid":"61a1944d732570cf33d02952"},"answer":"Looking for the letters on the graph that have lined up with 12pm (F and B)","block":"triangular_testing","condition":"121","experiment":"2YP3","graph":"triangular","internal_node_id":"0.0-9.0-0.0","q":16,"rt":36578,"session":"a16325198","subject":"8MT4O","time_elapsed":517784,"trial_index":22,"trial_type":"html","url":"../views/src/external/stimulus.html"},{"_id":{"$oid":"61a1944d732570cf33d0296c"},"answer":"Look at what points match the point of 12 pm based on the X-axis.","block":"triangular_testing","condition":"111","experiment":"2YP3","graph":"triangular","internal_node_id":"0.0-9.0-0.0","q":16,"rt":49499,"session":"a16109769","subject":"EZ7J5","time_elapsed":584089,"trial_index":22,"trial_type":"html","url":"../views/src/external/stimulus.html"},{"_id":{"$oid":"61a1944d732570cf33d02986"},"answer":"Vertical axis","block":"triangular_testing","condition":"111","experiment":"2YP3","graph":"triangular","internal_node_id":"0.0-9.0-0.0","q":16,"rt":11916,"session":"a16847802","subject":"WB4HC","time_elapsed":1253084,"trial_index":22,"trial_type":"html","url":"../views/src/external/stimulus.html"},{"_id":{"$oid":"61a1944d732570cf33d029a0"},"answer":"Look at the bottom where time of day is and find 12pm. Afterwards, look up to see which dots are aligned with 12pm","block":"triangular_testing","condition":"111","experiment":"2YP3","graph":"triangular","internal_node_id":"0.0-9.0-0.0","q":16,"rt":73099,"session":"a09436222","subject":"WYZCU","time_elapsed":481224,"trial_index":22,"trial_type":"html","url":"../views/src/external/stimulus.html"},{"_id":{"$oid":"61a1944d732570cf33d029ba"},"answer":"F & B start at 12 because the dots are aligned with 12pm","block":"triangular_testing","condition":"111","experiment":"2YP3","graph":"triangular","internal_node_id":"0.0-9.0-0.0","q":16,"rt":54264,"session":"a16528837","subject":"9S5Z0","time_elapsed":1404111,"trial_index":22,"trial_type":"html","url":"../views/src/external/stimulus.html"},{"_id":{"$oid":"61a1944d732570cf33d029d4"},"answer":"The left line moving up and to the right indicate the start time of shifts, so by finding the coordinating point and left line at 12pm, you can find what shifts start at that time","block":"triangular_testing","condition":"121","experiment":"2YP3","graph":"triangular","internal_node_id":"0.0-9.0-0.0","q":16,"rt":87212,"session":"a15889123","subject":"OE3DT","time_elapsed":866689,"trial_index":22,"trial_type":"html","url":"../views/src/external/stimulus.html"},{"_id":{"$oid":"61a1944d732570cf33d029ee"},"answer":"Oh no i read the x axis wrong, 12pm is the vertex of the diamond part of the graph not the one before. From there you go up the y axis","block":"triangular_testing","condition":"121","experiment":"2YP3","graph":"triangular","internal_node_id":"0.0-9.0-0.0","q":16,"rt":55755,"session":"a15777676","subject":"1QMGP","time_elapsed":586980,"trial_index":22,"trial_type":"html","url":"../views/src/external/stimulus.html"},{"_id":{"$oid":"61a1944d732570cf33d02a3c"},"answer":"Look at the x axis (start and end time (time of day) go to 12pm on that axis scan up and you will located the two shifts that start at 12 pm","block":"triangular_testing","condition":"111","experiment":"2YP3","graph":"triangular","internal_node_id":"0.0-9.0-0.0","q":16,"rt":87320,"session":"a16074760","subject":"E6KMK","time_elapsed":1558678,"trial_index":22,"trial_type":"html","url":"../views/src/external/stimulus.html"},{"_id":{"$oid":"61a1944d732570cf33d02a56"},"answer":"look at 12pm","block":"triangular_testing","condition":"121","experiment":"2YP3","graph":"triangular","internal_node_id":"0.0-9.0-0.0","q":16,"rt":38117,"session":"a17184034","subject":"ARCSZ","time_elapsed":754846,"trial_index":22,"trial_type":"html","url":"../views/src/external/stimulus.html"},{"_id":{"$oid":"61a1944d732570cf33d02a70"},"answer":"Look Look at x axis and see which letter starts there/ has a point","block":"triangular_testing","condition":"111","experiment":"2YP3","graph":"triangular","internal_node_id":"0.0-9.0-0.0","q":16,"rt":26096,"session":"a16608791","subject":"Z461O","time_elapsed":656702,"trial_index":22,"trial_type":"html","url":"../views/src/external/stimulus.html"},{"_id":{"$oid":"61a1944d732570cf33d02a8a"},"answer":"12 pm on the x-axis going up are the shifts that start at 12 pm","block":"triangular_testing","condition":"111","experiment":"2YP3","graph":"triangular","internal_node_id":"0.0-9.0-0.0","q":16,"rt":38616,"session":"a15404283","subject":"0F1A8","time_elapsed":814827,"trial_index":22,"trial_type":"html","url":"../views/src/external/stimulus.html"},{"_id":{"$oid":"61a1944d732570cf33d02abe"},"answer":"LookI looked at X-axis and look for 12 pm.","block":"triangular_testing","condition":"111","experiment":"2YP3","graph":"triangular","internal_node_id":"0.0-9.0-0.0","q":16,"rt":24391,"session":"a16348868","subject":"F86ZM","time_elapsed":739556,"trial_index":22,"trial_type":"html","url":"../views/src/external/stimulus.html"},{"_id":{"$oid":"61a1944d732570cf33d02ad8"},"answer":"Go to the x-axis and find 12 PM, then follow a vertical line up and any shifts along that line start then. ","block":"triangular_testing","condition":"111","experiment":"2YP3","graph":"triangular","internal_node_id":"0.0-9.0-0.0","q":16,"rt":107473,"session":"a17174133","subject":"UN6MT","time_elapsed":644217,"trial_index":22,"trial_type":"html","url":"../views/src/external/stimulus.html"},{"_id":{"$oid":"61a1944d732570cf33d02b0c"},"answer":"The line that starts at 12 that is diagonally shooting to the right starting from the 12 point, any dots on that line start at 12. Its hard to describe how I determined it.","block":"triangular_testing","condition":"121","experiment":"2YP3","graph":"triangular","internal_node_id":"0.0-9.0-0.0","q":16,"rt":88452,"session":"a17155299","subject":"CHP0K","time_elapsed":692210,"trial_index":22,"trial_type":"html","url":"../views/src/external/stimulus.html"},{"_id":{"$oid":"61a1944d732570cf33d02b26"},"answer":"","block":"triangular_testing","condition":"111","experiment":"2YP3","graph":"triangular","internal_node_id":"0.0-9.0-0.0","q":16,"rt":8152,"session":"a17243733","subject":"XOZJ7","time_elapsed":462176,"trial_index":22,"trial_type":"html","url":"../views/src/external/stimulus.html"},{"_id":{"$oid":"61a1944a732570cf33d020c6"},"answer":"F","axis":"Orthogonal-XInside-YFull","clicks":3,"condition":"211","correct":1,"explicit":2,"impasse":1,"orth_correct":0,"q":1,"question":"starttime","rt":48093,"session":"a16308330","subject":"WLO69"},{"_id":{"$oid":"61a1944a732570cf33d020c7"},"answer":"K","axis":"Orthogonal-XInside-YFull","clicks":1.5,"condition":"211","correct":1,"explicit":2,"impasse":1,"orth_correct":0,"q":2,"question":"starts","rt":15283,"session":"a16308330","subject":"WLO69"},{"_id":{"$oid":"61a1944a732570cf33d020c8"},"answer":"F","axis":"Orthogonal-XInside-YFull","clicks":1,"condition":"211","correct":1,"explicit":2,"impasse":1,"orth_correct":0,"q":3,"question":"meets","rt":19684,"session":"a16308330","subject":"WLO69"},{"_id":{"$oid":"61a1944a732570cf33d020c9"},"answer":"H","axis":"Orthogonal-XInside-YFull","clicks":1,"condition":"211","correct":1,"explicit":2,"impasse":1,"orth_correct":0,"q":4,"question":"endtime","rt":9861,"session":"a16308330","subject":"WLO69"},{"_id":{"$oid":"61a1944a732570cf33d020ca"},"answer":"O","axis":"Orthogonal-XInside-YFull","clicks":1,"condition":"211","correct":1,"explicit":2,"impasse":1,"orth_correct":0,"q":5,"question":"midpoint","rt":28342,"session":"a16308330","subject":"WLO69"},{"_id":{"$oid":"61a1944a732570cf33d020cb"},"answer":"EG","axis":"Orthogonal-XInside-YFull","clicks":2,"condition":"211","correct":1,"explicit":2,"impasse":1,"orth_correct":1,"q":6,"question":"duration","rt":11082,"session":"a16308330","subject":"WLO69"},{"_id":{"$oid":"61a1944a732570cf33d020cc"},"answer":"XO","axis":"Orthogonal-XInside-YFull","clicks":2,"condition":"211","correct":1,"explicit":2,"impasse":1,"orth_correct":0,"q":7,"question":"duration+starts","rt":32911,"session":"a16308330","subject":"WLO69"},{"_id":{"$oid":"61a1944a732570cf33d020cd"},"answer":"AGK","axis":"Orthogonal-XInside-YFull","clicks":3,"condition":"211","correct":0,"explicit":2,"impasse":1,"orth_correct":0,"q":8,"question":"duration+contained","rt":52836,"session":"a16308330","subject":"WLO69"},{"_id":{"$oid":"61a1944a732570cf33d020ce"},"answer":"I","axis":"Orthogonal-XInside-YFull","clicks":1,"condition":"211","correct":1,"explicit":2,"impasse":1,"orth_correct":1,"q":9,"question":"starttime+before+endtime+during","rt":38247,"session":"a16308330","subject":"WLO69"},{"_id":{"$oid":"61a1944a732570cf33d020cf"},"answer":"E","axis":"Orthogonal-XInside-YFull","clicks":1,"condition":"211","correct":1,"explicit":2,"impasse":1,"orth_correct":0,"q":10,"question":"ends","rt":9870,"session":"a16308330","subject":"WLO69"},{"_id":{"$oid":"61a1944a732570cf33d020d0"},"answer":"ML","axis":"Orthogonal-XInside-YFull","clicks":2,"condition":"211","correct":1,"explicit":2,"impasse":1,"orth_correct":0,"q":11,"question":"starttime","rt":11067,"session":"a16308330","subject":"WLO69"},{"_id":{"$oid":"61a1944a732570cf33d020d1"},"answer":"G","axis":"Orthogonal-XInside-YFull","clicks":1,"condition":"211","correct":1,"explicit":2,"impasse":1,"orth_correct":0,"q":12,"question":"starts","rt":13115,"session":"a16308330","subject":"WLO69"},{"_id":{"$oid":"61a1944a732570cf33d020d2"},"answer":"EF","axis":"Orthogonal-XInside-YFull","clicks":2.5,"condition":"211","correct":1,"explicit":2,"impasse":1,"orth_correct":0,"q":13,"question":"meets","rt":18327,"session":"a16308330","subject":"WLO69"},{"_id":{"$oid":"61a1944a732570cf33d020d3"},"answer":"X","axis":"Orthogonal-XInside-YFull","clicks":1,"condition":"211","correct":1,"explicit":2,"impasse":1,"orth_correct":0,"q":14,"question":"endtime","rt":8748,"session":"a16308330","subject":"WLO69"},{"_id":{"$oid":"61a1944a732570cf33d020d4"},"answer":"KX","axis":"Orthogonal-XInside-YFull","clicks":2.5,"condition":"211","correct":1,"explicit":2,"impasse":1,"orth_correct":0,"q":15,"question":"midpoint","rt":13899,"session":"a16308330","subject":"WLO69"},{"_id":{"$oid":"61a1944a732570cf33d020df"},"answer":"","axis":"Orthogonal-XInside-YFull","clicks":0,"condition":"121\n121","correct":0,"explicit":1,"impasse":2,"orth_correct":0,"q":1,"question":"starttime","rt":30562,"session":"a1677674","subject":"63VL0"},{"_id":{"$oid":"61a1944a732570cf33d020e0"},"answer":"K","axis":"Orthogonal-XInside-YFull","clicks":1,"condition":"121\n121","correct":1,"explicit":1,"impasse":2,"orth_correct":0,"q":2,"question":"starts","rt":42611,"session":"a1677674","subject":"63VL0"},{"_id":{"$oid":"61a1944a732570cf33d020e1"},"answer":"F","axis":"Orthogonal-XInside-YFull","clicks":1,"condition":"121\n121","correct":1,"explicit":1,"impasse":2,"orth_correct":0,"q":3,"question":"meets","rt":23208,"session":"a1677674","subject":"63VL0"},{"_id":{"$oid":"61a1944a732570cf33d020e2"},"answer":"D","axis":"Orthogonal-XInside-YFull","clicks":1,"condition":"121\n121","correct":0,"explicit":1,"impasse":2,"orth_correct":0,"q":4,"question":"endtime","rt":13857,"session":"a1677674","subject":"63VL0"},{"_id":{"$oid":"61a1944a732570cf33d020e3"},"answer":"","axis":"Orthogonal-XInside-YFull","clicks":0,"condition":"121\n121","correct":0,"explicit":1,"impasse":2,"orth_correct":0,"q":5,"question":"midpoint","rt":36218,"session":"a1677674","subject":"63VL0"},{"_id":{"$oid":"61a1944a732570cf33d020e4"},"answer":"EG","axis":"Orthogonal-XInside-YFull","clicks":2,"condition":"121\n121","correct":1,"explicit":1,"impasse":2,"orth_correct":1,"q":6,"question":"duration","rt":11258,"session":"a1677674","subject":"63VL0"},{"_id":{"$oid":"61a1944a732570cf33d020e5"},"answer":"XO","axis":"Orthogonal-XInside-YFull","clicks":2,"condition":"121\n121","correct":1,"explicit":1,"impasse":2,"orth_correct":0,"q":7,"question":"duration+starts","rt":25782,"session":"a1677674","subject":"63VL0"},{"_id":{"$oid":"61a1944a732570cf33d020e6"},"answer":"G","axis":"Orthogonal-XInside-YFull","clicks":1.5,"condition":"121\n121","correct":1,"explicit":1,"impasse":2,"orth_correct":0,"q":8,"question":"duration+contained","rt":57085,"session":"a1677674","subject":"63VL0"},{"_id":{"$oid":"61a1944a732570cf33d020e7"},"answer":"IEM","axis":"Orthogonal-XInside-YFull","clicks":3,"condition":"121\n121","correct":0,"explicit":1,"impasse":2,"orth_correct":0,"q":9,"question":"starttime+before+endtime+during","rt":69163,"session":"a1677674","subject":"63VL0"},{"_id":{"$oid":"61a1944a732570cf33d020e8"},"answer":"E","axis":"Orthogonal-XInside-YFull","clicks":1,"condition":"121\n121","correct":1,"explicit":1,"impasse":2,"orth_correct":0,"q":10,"question":"ends","rt":9011,"session":"a1677674","subject":"63VL0"},{"_id":{"$oid":"61a1944a732570cf33d020e9"},"answer":"ML","axis":"Orthogonal-XInside-YFull","clicks":2,"condition":"121\n121","correct":1,"explicit":1,"impasse":2,"orth_correct":0,"q":11,"question":"starttime","rt":22961,"session":"a1677674","subject":"63VL0"},{"_id":{"$oid":"61a1944a732570cf33d020ea"},"answer":"G","axis":"Orthogonal-XInside-YFull","clicks":1,"condition":"121\n121","correct":1,"explicit":1,"impasse":2,"orth_correct":0,"q":12,"question":"starts","rt":8279,"session":"a1677674","subject":"63VL0"},{"_id":{"$oid":"61a1944a732570cf33d020eb"},"answer":"EF","axis":"Orthogonal-XInside-YFull","clicks":3,"condition":"121\n121","correct":1,"explicit":1,"impasse":2,"orth_correct":0,"q":13,"question":"meets","rt":21448,"session":"a1677674","subject":"63VL0"},{"_id":{"$oid":"61a1944a732570cf33d020ec"},"answer":"X","axis":"Orthogonal-XInside-YFull","clicks":1,"condition":"121\n121","correct":1,"explicit":1,"impasse":2,"orth_correct":0,"q":14,"question":"endtime","rt":11658,"session":"a1677674","subject":"63VL0"},{"_id":{"$oid":"61a1944a732570cf33d020ed"},"answer":"KX","axis":"Orthogonal-XInside-YFull","clicks":2,"condition":"121\n121","correct":1,"explicit":1,"impasse":2,"orth_correct":0,"q":15,"question":"midpoint","rt":25950,"session":"a1677674","subject":"63VL0"},{"_id":{"$oid":"61a1944a732570cf33d020f8"},"answer":"F","axis":"Orthogonal-XInside-YFull","clicks":1,"condition":"221","correct":1,"explicit":2,"impasse":2,"orth_correct":0,"q":1,"question":"starttime","rt":42324,"session":"a16348482","subject":"LZSME"},{"_id":{"$oid":"61a1944a732570cf33d020f9"},"answer":"K","axis":"Orthogonal-XInside-YFull","clicks":1,"condition":"221","correct":1,"explicit":2,"impasse":2,"orth_correct":0,"q":2,"question":"starts","rt":25644,"session":"a16348482","subject":"LZSME"},{"_id":{"$oid":"61a1944a732570cf33d020fa"},"answer":"F","axis":"Orthogonal-XInside-YFull","clicks":1.5,"condition":"221","correct":1,"explicit":2,"impasse":2,"orth_correct":0,"q":3,"question":"meets","rt":17536,"session":"a16348482","subject":"LZSME"},{"_id":{"$oid":"61a1944a732570cf33d020fb"},"answer":"H","axis":"Orthogonal-XInside-YFull","clicks":1,"condition":"221","correct":1,"explicit":2,"impasse":2,"orth_correct":0,"q":4,"question":"endtime","rt":17241,"session":"a16348482","subject":"LZSME"},{"_id":{"$oid":"61a1944a732570cf33d020fc"},"answer":"A","axis":"Orthogonal-XInside-YFull","clicks":1,"condition":"221","correct":1,"explicit":2,"impasse":2,"orth_correct":0,"q":5,"question":"midpoint","rt":58627,"session":"a16348482","subject":"LZSME"},{"_id":{"$oid":"61a1944a732570cf33d020fd"},"answer":"EG","axis":"Orthogonal-XInside-YFull","clicks":2,"condition":"221","correct":1,"explicit":2,"impasse":2,"orth_correct":1,"q":6,"question":"duration","rt":33820,"session":"a16348482","subject":"LZSME"},{"_id":{"$oid":"61a1944a732570cf33d020fe"},"answer":"XO","axis":"Orthogonal-XInside-YFull","clicks":7,"condition":"221","correct":1,"explicit":2,"impasse":2,"orth_correct":0,"q":7,"question":"duration+starts","rt":37382,"session":"a16348482","subject":"LZSME"},{"_id":{"$oid":"61a1944a732570cf33d020ff"},"answer":"C","axis":"Orthogonal-XInside-YFull","clicks":1,"condition":"221","correct":0,"explicit":2,"impasse":2,"orth_correct":0,"q":8,"question":"duration+contained","rt":47164,"session":"a16348482","subject":"LZSME"},{"_id":{"$oid":"61a1944a732570cf33d02100"},"answer":"I","axis":"Orthogonal-XInside-YFull","clicks":1.5,"condition":"221","correct":1,"explicit":2,"impasse":2,"orth_correct":1,"q":9,"question":"starttime+before+endtime+during","rt":37580,"session":"a16348482","subject":"LZSME"},{"_id":{"$oid":"61a1944a732570cf33d02101"},"answer":"E","axis":"Orthogonal-XInside-YFull","clicks":1,"condition":"221","correct":1,"explicit":2,"impasse":2,"orth_correct":0,"q":10,"question":"ends","rt":13550,"session":"a16348482","subject":"LZSME"},{"_id":{"$oid":"61a1944a732570cf33d02102"},"answer":"ML","axis":"Orthogonal-XInside-YFull","clicks":2,"condition":"221","correct":1,"explicit":2,"impasse":2,"orth_correct":0,"q":11,"question":"starttime","rt":11597,"session":"a16348482","subject":"LZSME"},{"_id":{"$oid":"61a1944a732570cf33d02103"},"answer":"G","axis":"Orthogonal-XInside-YFull","clicks":1,"condition":"221","correct":1,"explicit":2,"impasse":2,"orth_correct":0,"q":12,"question":"starts","rt":7589,"session":"a16348482","subject":"LZSME"},{"_id":{"$oid":"61a1944a732570cf33d02104"},"answer":"F","axis":"Orthogonal-XInside-YFull","clicks":1.5,"condition":"221","correct":0,"explicit":2,"impasse":2,"orth_correct":0,"q":13,"question":"meets","rt":11700,"session":"a16348482","subject":"LZSME"},{"_id":{"$oid":"61a1944a732570cf33d02105"},"answer":"X","axis":"Orthogonal-XInside-YFull","clicks":2,"condition":"221","correct":1,"explicit":2,"impasse":2,"orth_correct":0,"q":14,"question":"endtime","rt":11311,"session":"a16348482","subject":"LZSME"},{"_id":{"$oid":"61a1944a732570cf33d02106"},"answer":"X","axis":"Orthogonal-XInside-YFull","clicks":1,"condition":"221","correct":0,"explicit":2,"impasse":2,"orth_correct":0,"q":15,"question":"midpoint","rt":20280,"session":"a16348482","subject":"LZSME"},{"_id":{"$oid":"61a1944a732570cf33d02111"},"answer":"F","axis":"Orthogonal-XInside-YFull","clicks":1,"condition":"221","correct":1,"explicit":2,"impasse":2,"orth_correct":0,"q":1,"question":"starttime","rt":15027,"session":"a16128348","subject":"YRELO"},{"_id":{"$oid":"61a1944a732570cf33d02112"},"answer":"K","axis":"Orthogonal-XInside-YFull","clicks":1,"condition":"221","correct":1,"explicit":2,"impasse":2,"orth_correct":0,"q":2,"question":"starts","rt":10937,"session":"a16128348","subject":"YRELO"},{"_id":{"$oid":"61a1944a732570cf33d02113"},"answer":"F","axis":"Orthogonal-XInside-YFull","clicks":1,"condition":"221","correct":1,"explicit":2,"impasse":2,"orth_correct":0,"q":3,"question":"meets","rt":16942,"session":"a16128348","subject":"YRELO"},{"_id":{"$oid":"61a1944a732570cf33d02114"},"answer":"H","axis":"Orthogonal-XInside-YFull","clicks":1,"condition":"221","correct":1,"explicit":2,"impasse":2,"orth_correct":0,"q":4,"question":"endtime","rt":43898,"session":"a16128348","subject":"YRELO"},{"_id":{"$oid":"61a1944a732570cf33d02115"},"answer":"A","axis":"Orthogonal-XInside-YFull","clicks":1,"condition":"221","correct":1,"explicit":2,"impasse":2,"orth_correct":0,"q":5,"question":"midpoint","rt":29984,"session":"a16128348","subject":"YRELO"},{"_id":{"$oid":"61a1944a732570cf33d02116"},"answer":"EG","axis":"Orthogonal-XInside-YFull","clicks":2.5,"condition":"221","correct":1,"explicit":2,"impasse":2,"orth_correct":1,"q":6,"question":"duration","rt":19683,"session":"a16128348","subject":"YRELO"},{"_id":{"$oid":"61a1944a732570cf33d02117"},"answer":"XO","axis":"Orthogonal-XInside-YFull","clicks":2,"condition":"221","correct":1,"explicit":2,"impasse":2,"orth_correct":0,"q":7,"question":"duration+starts","rt":24543,"session":"a16128348","subject":"YRELO"},{"_id":{"$oid":"61a1944a732570cf33d02118"},"answer":"G","axis":"Orthogonal-XInside-YFull","clicks":1,"condition":"221","correct":1,"explicit":2,"impasse":2,"orth_correct":0,"q":8,"question":"duration+contained","rt":57486,"session":"a16128348","subject":"YRELO"},{"_id":{"$oid":"61a1944a732570cf33d02119"},"answer":"E","axis":"Orthogonal-XInside-YFull","clicks":1.5,"condition":"221","correct":0,"explicit":2,"impasse":2,"orth_correct":0,"q":9,"question":"starttime+before+endtime+during","rt":20468,"session":"a16128348","subject":"YRELO"},{"_id":{"$oid":"61a1944a732570cf33d0211a"},"answer":"E","axis":"Orthogonal-XInside-YFull","clicks":1,"condition":"221","correct":1,"explicit":2,"impasse":2,"orth_correct":0,"q":10,"question":"ends","rt":10414,"session":"a16128348","subject":"YRELO"},{"_id":{"$oid":"61a1944a732570cf33d0211b"},"answer":"JM","axis":"Orthogonal-XInside-YFull","clicks":2,"condition":"221","correct":0,"explicit":2,"impasse":2,"orth_correct":0,"q":11,"question":"starttime","rt":10865,"session":"a16128348","subject":"YRELO"},{"_id":{"$oid":"61a1944a732570cf33d0211c"},"answer":"G","axis":"Orthogonal-XInside-YFull","clicks":1,"condition":"221","correct":1,"explicit":2,"impasse":2,"orth_correct":0,"q":12,"question":"starts","rt":17042,"session":"a16128348","subject":"YRELO"},{"_id":{"$oid":"61a1944a732570cf33d0211d"},"answer":"EF","axis":"Orthogonal-XInside-YFull","clicks":2,"condition":"221","correct":1,"explicit":2,"impasse":2,"orth_correct":0,"q":13,"question":"meets","rt":18577,"session":"a16128348","subject":"YRELO"},{"_id":{"$oid":"61a1944a732570cf33d0211e"},"answer":"X","axis":"Orthogonal-XInside-YFull","clicks":1,"condition":"221","correct":1,"explicit":2,"impasse":2,"orth_correct":0,"q":14,"question":"endtime","rt":7918,"session":"a16128348","subject":"YRELO"},{"_id":{"$oid":"61a1944a732570cf33d0211f"},"answer":"KX","axis":"Orthogonal-XInside-YFull","clicks":2,"condition":"221","correct":1,"explicit":2,"impasse":2,"orth_correct":0,"q":15,"question":"midpoint","rt":15224,"session":"a16128348","subject":"YRELO"},{"_id":{"$oid":"61a1944a732570cf33d0212a"},"answer":"F","axis":"Orthogonal-XInside-YFull","clicks":3,"condition":"211","correct":1,"explicit":2,"impasse":1,"orth_correct":0,"q":1,"question":"starttime","rt":45395,"session":"a15769204","subject":"47SB1"},{"_id":{"$oid":"61a1944a732570cf33d0212b"},"answer":"K","axis":"Orthogonal-XInside-YFull","clicks":1.5,"condition":"211","correct":1,"explicit":2,"impasse":1,"orth_correct":0,"q":2,"question":"starts","rt":10894,"session":"a15769204","subject":"47SB1"},{"_id":{"$oid":"61a1944a732570cf33d0212c"},"answer":"F","axis":"Orthogonal-XInside-YFull","clicks":1,"condition":"211","correct":1,"explicit":2,"impasse":1,"orth_correct":0,"q":3,"question":"meets","rt":7447,"session":"a15769204","subject":"47SB1"},{"_id":{"$oid":"61a1944a732570cf33d0212d"},"answer":"H","axis":"Orthogonal-XInside-YFull","clicks":1,"condition":"211","correct":1,"explicit":2,"impasse":1,"orth_correct":0,"q":4,"question":"endtime","rt":6532,"session":"a15769204","subject":"47SB1"},{"_id":{"$oid":"61a1944a732570cf33d0212e"},"answer":"O","axis":"Orthogonal-XInside-YFull","clicks":1,"condition":"211","correct":1,"explicit":2,"impasse":1,"orth_correct":0,"q":5,"question":"midpoint","rt":11844,"session":"a15769204","subject":"47SB1"},{"_id":{"$oid":"61a1944a732570cf33d0212f"},"answer":"EG","axis":"Orthogonal-XInside-YFull","clicks":2,"condition":"211","correct":1,"explicit":2,"impasse":1,"orth_correct":1,"q":6,"question":"duration","rt":15177,"session":"a15769204","subject":"47SB1"},{"_id":{"$oid":"61a1944a732570cf33d02130"},"answer":"XO","axis":"Orthogonal-XInside-YFull","clicks":2.5,"condition":"211","correct":1,"explicit":2,"impasse":1,"orth_correct":0,"q":7,"question":"duration+starts","rt":27216,"session":"a15769204","subject":"47SB1"},{"_id":{"$oid":"61a1944a732570cf33d02131"},"answer":"AG","axis":"Orthogonal-XInside-YFull","clicks":2,"condition":"211","correct":0,"explicit":2,"impasse":1,"orth_correct":0,"q":8,"question":"duration+contained","rt":24101,"session":"a15769204","subject":"47SB1"},{"_id":{"$oid":"61a1944a732570cf33d02132"},"answer":"I","axis":"Orthogonal-XInside-YFull","clicks":3,"condition":"211","correct":1,"explicit":2,"impasse":1,"orth_correct":1,"q":9,"question":"starttime+before+endtime+during","rt":62257,"session":"a15769204","subject":"47SB1"},{"_id":{"$oid":"61a1944a732570cf33d02133"},"answer":"E","axis":"Orthogonal-XInside-YFull","clicks":1,"condition":"211","correct":1,"explicit":2,"impasse":1,"orth_correct":0,"q":10,"question":"ends","rt":7380,"session":"a15769204","subject":"47SB1"},{"_id":{"$oid":"61a1944a732570cf33d02134"},"answer":"ML","axis":"Orthogonal-XInside-YFull","clicks":2,"condition":"211","correct":1,"explicit":2,"impasse":1,"orth_correct":0,"q":11,"question":"starttime","rt":8194,"session":"a15769204","subject":"47SB1"},{"_id":{"$oid":"61a1944a732570cf33d02135"},"answer":"FG","axis":"Orthogonal-XInside-YFull","clicks":2.5,"condition":"211","correct":0,"explicit":2,"impasse":1,"orth_correct":0,"q":12,"question":"starts","rt":7834,"session":"a15769204","subject":"47SB1"},{"_id":{"$oid":"61a1944a732570cf33d02136"},"answer":"EF","axis":"Orthogonal-XInside-YFull","clicks":2,"condition":"211","correct":1,"explicit":2,"impasse":1,"orth_correct":0,"q":13,"question":"meets","rt":9918,"session":"a15769204","subject":"47SB1"},{"_id":{"$oid":"61a1944a732570cf33d02137"},"answer":"X","axis":"Orthogonal-XInside-YFull","clicks":1,"condition":"211","correct":1,"explicit":2,"impasse":1,"orth_correct":0,"q":14,"question":"endtime","rt":7933,"session":"a15769204","subject":"47SB1"},{"_id":{"$oid":"61a1944a732570cf33d02138"},"answer":"KX","axis":"Orthogonal-XInside-YFull","clicks":2.5,"condition":"211","correct":1,"explicit":2,"impasse":1,"orth_correct":0,"q":15,"question":"midpoint","rt":9886,"session":"a15769204","subject":"47SB1"},{"_id":{"$oid":"61a1944b732570cf33d0218e"},"answer":"F","axis":"Orthogonal-XInside-YFull","clicks":3,"condition":"321","correct":1,"explicit":3,"impasse":2,"orth_correct":0,"q":1,"question":"starttime","rt":33085,"session":"a15458549","subject":"DGVGP"},{"_id":{"$oid":"61a1944b732570cf33d0218f"},"answer":"K","axis":"Orthogonal-XInside-YFull","clicks":1,"condition":"321","correct":1,"explicit":3,"impasse":2,"orth_correct":0,"q":2,"question":"starts","rt":12635,"session":"a15458549","subject":"DGVGP"},{"_id":{"$oid":"61a1944b732570cf33d02190"},"answer":"F","axis":"Orthogonal-XInside-YFull","clicks":1,"condition":"321","correct":1,"explicit":3,"impasse":2,"orth_correct":0,"q":3,"question":"meets","rt":9167,"session":"a15458549","subject":"DGVGP"},{"_id":{"$oid":"61a1944b732570cf33d02191"},"answer":"H","axis":"Orthogonal-XInside-YFull","clicks":1,"condition":"321","correct":1,"explicit":3,"impasse":2,"orth_correct":0,"q":4,"question":"endtime","rt":10596,"session":"a15458549","subject":"DGVGP"},{"_id":{"$oid":"61a1944b732570cf33d02192"},"answer":"A","axis":"Orthogonal-XInside-YFull","clicks":1,"condition":"321","correct":1,"explicit":3,"impasse":2,"orth_correct":0,"q":5,"question":"midpoint","rt":12323,"session":"a15458549","subject":"DGVGP"},{"_id":{"$oid":"61a1944b732570cf33d02193"},"answer":"EG","axis":"Orthogonal-XInside-YFull","clicks":2,"condition":"321","correct":1,"explicit":3,"impasse":2,"orth_correct":1,"q":6,"question":"duration","rt":13256,"session":"a15458549","subject":"DGVGP"},{"_id":{"$oid":"61a1944b732570cf33d02194"},"answer":"XO","axis":"Orthogonal-XInside-YFull","clicks":2,"condition":"321","correct":1,"explicit":3,"impasse":2,"orth_correct":0,"q":7,"question":"duration+starts","rt":22109,"session":"a15458549","subject":"DGVGP"},{"_id":{"$oid":"61a1944b732570cf33d02195"},"answer":"AK","axis":"Orthogonal-XInside-YFull","clicks":2,"condition":"321","correct":0,"explicit":3,"impasse":2,"orth_correct":0,"q":8,"question":"duration+contained","rt":35597,"session":"a15458549","subject":"DGVGP"},{"_id":{"$oid":"61a1944b732570cf33d02196"},"answer":"I","axis":"Orthogonal-XInside-YFull","clicks":1,"condition":"321","correct":1,"explicit":3,"impasse":2,"orth_correct":1,"q":9,"question":"starttime+before+endtime+during","rt":16753,"session":"a15458549","subject":"DGVGP"},{"_id":{"$oid":"61a1944b732570cf33d02197"},"answer":"E","axis":"Orthogonal-XInside-YFull","clicks":1,"condition":"321","correct":1,"explicit":3,"impasse":2,"orth_correct":0,"q":10,"question":"ends","rt":10071,"session":"a15458549","subject":"DGVGP"},{"_id":{"$oid":"61a1944b732570cf33d02198"},"answer":"M","axis":"Orthogonal-XInside-YFull","clicks":1,"condition":"321","correct":0,"explicit":3,"impasse":2,"orth_correct":0,"q":11,"question":"starttime","rt":5776,"session":"a15458549","subject":"DGVGP"},{"_id":{"$oid":"61a1944b732570cf33d02199"},"answer":"G","axis":"Orthogonal-XInside-YFull","clicks":1,"condition":"321","correct":1,"explicit":3,"impasse":2,"orth_correct":0,"q":12,"question":"starts","rt":7928,"session":"a15458549","subject":"DGVGP"},{"_id":{"$oid":"61a1944b732570cf33d0219a"},"answer":"EF","axis":"Orthogonal-XInside-YFull","clicks":2,"condition":"321","correct":1,"explicit":3,"impasse":2,"orth_correct":0,"q":13,"question":"meets","rt":14592,"session":"a15458549","subject":"DGVGP"},{"_id":{"$oid":"61a1944b732570cf33d0219b"},"answer":"X","axis":"Orthogonal-XInside-YFull","clicks":2,"condition":"321","correct":1,"explicit":3,"impasse":2,"orth_correct":0,"q":14,"question":"endtime","rt":8240,"session":"a15458549","subject":"DGVGP"},{"_id":{"$oid":"61a1944b732570cf33d0219c"},"answer":"KX","axis":"Orthogonal-XInside-YFull","clicks":2.5,"condition":"321","correct":1,"explicit":3,"impasse":2,"orth_correct":0,"q":15,"question":"midpoint","rt":16865,"session":"a15458549","subject":"DGVGP"},{"_id":{"$oid":"61a1944b732570cf33d021a7"},"answer":"A","axis":"Orthogonal-XInside-YFull","clicks":1,"condition":"311","correct":0,"explicit":3,"impasse":1,"orth_correct":1,"q":1,"question":"starttime","rt":41108,"session":"a13190800","subject":"TE7JZ"},{"_id":{"$oid":"61a1944b732570cf33d021a8"},"answer":"E","axis":"Orthogonal-XInside-YFull","clicks":1,"condition":"311","correct":0,"explicit":3,"impasse":1,"orth_correct":1,"q":2,"question":"starts","rt":32246,"session":"a13190800","subject":"TE7JZ"},{"_id":{"$oid":"61a1944b732570cf33d021a9"},"answer":"AF","axis":"Orthogonal-XInside-YFull","clicks":2,"condition":"311","correct":0,"explicit":3,"impasse":1,"orth_correct":0,"q":3,"question":"meets","rt":74534,"session":"a13190800","subject":"TE7JZ"},{"_id":{"$oid":"61a1944b732570cf33d021aa"},"answer":"H","axis":"Orthogonal-XInside-YFull","clicks":1,"condition":"311","correct":1,"explicit":3,"impasse":1,"orth_correct":0,"q":4,"question":"endtime","rt":34173,"session":"a13190800","subject":"TE7JZ"},{"_id":{"$oid":"61a1944b732570cf33d021ab"},"answer":"O","axis":"Orthogonal-XInside-YFull","clicks":1.5,"condition":"311","correct":1,"explicit":3,"impasse":1,"orth_correct":0,"q":5,"question":"midpoint","rt":138748,"session":"a13190800","subject":"TE7JZ"},{"_id":{"$oid":"61a1944b732570cf33d021ac"},"answer":"EG","axis":"Orthogonal-XInside-YFull","clicks":2,"condition":"311","correct":1,"explicit":3,"impasse":1,"orth_correct":1,"q":6,"question":"duration","rt":12790,"session":"a13190800","subject":"TE7JZ"},{"_id":{"$oid":"61a1944b732570cf33d021ad"},"answer":"","axis":"Orthogonal-XInside-YFull","clicks":0,"condition":"311","correct":0,"explicit":3,"impasse":1,"orth_correct":0,"q":7,"question":"duration+starts","rt":75210,"session":"a13190800","subject":"TE7JZ"},{"_id":{"$oid":"61a1944b732570cf33d021ae"},"answer":"","axis":"Orthogonal-XInside-YFull","clicks":0,"condition":"311","correct":0,"explicit":3,"impasse":1,"orth_correct":0,"q":8,"question":"duration+contained","rt":186766,"session":"a13190800","subject":"TE7JZ"},{"_id":{"$oid":"61a1944b732570cf33d021af"},"answer":"IM","axis":"Orthogonal-XInside-YFull","clicks":2,"condition":"311","correct":0,"explicit":3,"impasse":1,"orth_correct":0,"q":9,"question":"starttime+before+endtime+during","rt":141702,"session":"a13190800","subject":"TE7JZ"},{"_id":{"$oid":"61a1944b732570cf33d021b0"},"answer":"","axis":"Orthogonal-XInside-YFull","clicks":0,"condition":"311","correct":0,"explicit":3,"impasse":1,"orth_correct":0,"q":10,"question":"ends","rt":39719,"session":"a13190800","subject":"TE7JZ"},{"_id":{"$oid":"61a1944b732570cf33d021b1"},"answer":"FB","axis":"Orthogonal-XInside-YFull","clicks":2,"condition":"311","correct":0,"explicit":3,"impasse":1,"orth_correct":1,"q":11,"question":"starttime","rt":1487203,"session":"a13190800","subject":"TE7JZ"},{"_id":{"$oid":"61a1944b732570cf33d021b2"},"answer":"B","axis":"Orthogonal-XInside-YFull","clicks":1,"condition":"311","correct":0,"explicit":3,"impasse":1,"orth_correct":1,"q":12,"question":"starts","rt":18025,"session":"a13190800","subject":"TE7JZ"},{"_id":{"$oid":"61a1944b732570cf33d021b3"},"answer":"","axis":"Orthogonal-XInside-YFull","clicks":0,"condition":"311","correct":0,"explicit":3,"impasse":1,"orth_correct":0,"q":13,"question":"meets","rt":17792,"session":"a13190800","subject":"TE7JZ"},{"_id":{"$oid":"61a1944b732570cf33d021b4"},"answer":"X","axis":"Orthogonal-XInside-YFull","clicks":1.5,"condition":"311","correct":1,"explicit":3,"impasse":1,"orth_correct":0,"q":14,"question":"endtime","rt":42708,"session":"a13190800","subject":"TE7JZ"},{"_id":{"$oid":"61a1944b732570cf33d021b5"},"answer":"KX","axis":"Orthogonal-XInside-YFull","clicks":2,"condition":"311","correct":1,"explicit":3,"impasse":1,"orth_correct":0,"q":15,"question":"midpoint","rt":36166,"session":"a13190800","subject":"TE7JZ"},{"_id":{"$oid":"61a1944b732570cf33d021c0"},"answer":"F","axis":"Orthogonal-XInside-YFull","clicks":1,"condition":"221","correct":1,"explicit":2,"impasse":2,"orth_correct":0,"q":1,"question":"starttime","rt":69882,"session":"a15435687","subject":"1H0SY"},{"_id":{"$oid":"61a1944b732570cf33d021c1"},"answer":"K","axis":"Orthogonal-XInside-YFull","clicks":1,"condition":"221","correct":1,"explicit":2,"impasse":2,"orth_correct":0,"q":2,"question":"starts","rt":8697,"session":"a15435687","subject":"1H0SY"},{"_id":{"$oid":"61a1944b732570cf33d021c2"},"answer":"F","axis":"Orthogonal-XInside-YFull","clicks":1,"condition":"221","correct":1,"explicit":2,"impasse":2,"orth_correct":0,"q":3,"question":"meets","rt":8400,"session":"a15435687","subject":"1H0SY"},{"_id":{"$oid":"61a1944b732570cf33d021c3"},"answer":"H","axis":"Orthogonal-XInside-YFull","clicks":1,"condition":"221","correct":1,"explicit":2,"impasse":2,"orth_correct":0,"q":4,"question":"endtime","rt":9567,"session":"a15435687","subject":"1H0SY"},{"_id":{"$oid":"61a1944b732570cf33d021c4"},"answer":"A","axis":"Orthogonal-XInside-YFull","clicks":1,"condition":"221","correct":1,"explicit":2,"impasse":2,"orth_correct":0,"q":5,"question":"midpoint","rt":18956,"session":"a15435687","subject":"1H0SY"},{"_id":{"$oid":"61a1944b732570cf33d021c5"},"answer":"EG","axis":"Orthogonal-XInside-YFull","clicks":4,"condition":"221","correct":1,"explicit":2,"impasse":2,"orth_correct":1,"q":6,"question":"duration","rt":51227,"session":"a15435687","subject":"1H0SY"},{"_id":{"$oid":"61a1944b732570cf33d021c6"},"answer":"XO","axis":"Orthogonal-XInside-YFull","clicks":2,"condition":"221","correct":1,"explicit":2,"impasse":2,"orth_correct":0,"q":7,"question":"duration+starts","rt":28970,"session":"a15435687","subject":"1H0SY"},{"_id":{"$oid":"61a1944b732570cf33d021c7"},"answer":"A","axis":"Orthogonal-XInside-YFull","clicks":1,"condition":"221","correct":0,"explicit":2,"impasse":2,"orth_correct":0,"q":8,"question":"duration+contained","rt":35611,"session":"a15435687","subject":"1H0SY"},{"_id":{"$oid":"61a1944b732570cf33d021c8"},"answer":"E","axis":"Orthogonal-XInside-YFull","clicks":1,"condition":"221","correct":0,"explicit":2,"impasse":2,"orth_correct":0,"q":9,"question":"starttime+before+endtime+during","rt":16914,"session":"a15435687","subject":"1H0SY"},{"_id":{"$oid":"61a1944b732570cf33d021c9"},"answer":"E","axis":"Orthogonal-XInside-YFull","clicks":1,"condition":"221","correct":1,"explicit":2,"impasse":2,"orth_correct":0,"q":10,"question":"ends","rt":11360,"session":"a15435687","subject":"1H0SY"},{"_id":{"$oid":"61a1944b732570cf33d021ca"},"answer":"ML","axis":"Orthogonal-XInside-YFull","clicks":2,"condition":"221","correct":1,"explicit":2,"impasse":2,"orth_correct":0,"q":11,"question":"starttime","rt":6219,"session":"a15435687","subject":"1H0SY"},{"_id":{"$oid":"61a1944b732570cf33d021cb"},"answer":"G","axis":"Orthogonal-XInside-YFull","clicks":1.5,"condition":"221","correct":1,"explicit":2,"impasse":2,"orth_correct":0,"q":12,"question":"starts","rt":9609,"session":"a15435687","subject":"1H0SY"},{"_id":{"$oid":"61a1944b732570cf33d021cc"},"answer":"EF","axis":"Orthogonal-XInside-YFull","clicks":2.5,"condition":"221","correct":1,"explicit":2,"impasse":2,"orth_correct":0,"q":13,"question":"meets","rt":21429,"session":"a15435687","subject":"1H0SY"},{"_id":{"$oid":"61a1944b732570cf33d021cd"},"answer":"X","axis":"Orthogonal-XInside-YFull","clicks":1,"condition":"221","correct":1,"explicit":2,"impasse":2,"orth_correct":0,"q":14,"question":"endtime","rt":7837,"session":"a15435687","subject":"1H0SY"},{"_id":{"$oid":"61a1944b732570cf33d021ce"},"answer":"CK","axis":"Orthogonal-XInside-YFull","clicks":2,"condition":"221","correct":0,"explicit":2,"impasse":2,"orth_correct":0,"q":15,"question":"midpoint","rt":19466,"session":"a15435687","subject":"1H0SY"},{"_id":{"$oid":"61a1944b732570cf33d021d9"},"answer":"F","axis":"Orthogonal-XInside-YFull","clicks":1,"condition":"321","correct":1,"explicit":3,"impasse":2,"orth_correct":0,"q":1,"question":"starttime","rt":21108,"session":"a15839275","subject":"9PELV"},{"_id":{"$oid":"61a1944b732570cf33d021da"},"answer":"K","axis":"Orthogonal-XInside-YFull","clicks":1,"condition":"321","correct":1,"explicit":3,"impasse":2,"orth_correct":0,"q":2,"question":"starts","rt":17995,"session":"a15839275","subject":"9PELV"},{"_id":{"$oid":"61a1944b732570cf33d021db"},"answer":"F","axis":"Orthogonal-XInside-YFull","clicks":1,"condition":"321","correct":1,"explicit":3,"impasse":2,"orth_correct":0,"q":3,"question":"meets","rt":13880,"session":"a15839275","subject":"9PELV"},{"_id":{"$oid":"61a1944b732570cf33d021dc"},"answer":"B","axis":"Orthogonal-XInside-YFull","clicks":1,"condition":"321","correct":0,"explicit":3,"impasse":2,"orth_correct":0,"q":4,"question":"endtime","rt":42128,"session":"a15839275","subject":"9PELV"},{"_id":{"$oid":"61a1944b732570cf33d021dd"},"answer":"A","axis":"Orthogonal-XInside-YFull","clicks":1,"condition":"321","correct":1,"explicit":3,"impasse":2,"orth_correct":0,"q":5,"question":"midpoint","rt":27688,"session":"a15839275","subject":"9PELV"},{"_id":{"$oid":"61a1944b732570cf33d021de"},"answer":"EG","axis":"Orthogonal-XInside-YFull","clicks":2,"condition":"321","correct":1,"explicit":3,"impasse":2,"orth_correct":1,"q":6,"question":"duration","rt":15115,"session":"a15839275","subject":"9PELV"},{"_id":{"$oid":"61a1944b732570cf33d021df"},"answer":"XO","axis":"Orthogonal-XInside-YFull","clicks":2,"condition":"321","correct":1,"explicit":3,"impasse":2,"orth_correct":0,"q":7,"question":"duration+starts","rt":36526,"session":"a15839275","subject":"9PELV"},{"_id":{"$oid":"61a1944b732570cf33d021e0"},"answer":"IJEFG","axis":"Orthogonal-XInside-YFull","clicks":5,"condition":"321","correct":0,"explicit":3,"impasse":2,"orth_correct":0,"q":8,"question":"duration+contained","rt":36265,"session":"a15839275","subject":"9PELV"},{"_id":{"$oid":"61a1944b732570cf33d021e1"},"answer":"I","axis":"Orthogonal-XInside-YFull","clicks":1,"condition":"321","correct":1,"explicit":3,"impasse":2,"orth_correct":1,"q":9,"question":"starttime+before+endtime+during","rt":26591,"session":"a15839275","subject":"9PELV"},{"_id":{"$oid":"61a1944b732570cf33d021e2"},"answer":"E","axis":"Orthogonal-XInside-YFull","clicks":1,"condition":"321","correct":1,"explicit":3,"impasse":2,"orth_correct":0,"q":10,"question":"ends","rt":10973,"session":"a15839275","subject":"9PELV"},{"_id":{"$oid":"61a1944b732570cf33d021e3"},"answer":"ML","axis":"Orthogonal-XInside-YFull","clicks":2.5,"condition":"321","correct":1,"explicit":3,"impasse":2,"orth_correct":0,"q":11,"question":"starttime","rt":11078,"session":"a15839275","subject":"9PELV"},{"_id":{"$oid":"61a1944b732570cf33d021e4"},"answer":"FG","axis":"Orthogonal-XInside-YFull","clicks":2,"condition":"321","correct":0,"explicit":3,"impasse":2,"orth_correct":0,"q":12,"question":"starts","rt":51304,"session":"a15839275","subject":"9PELV"},{"_id":{"$oid":"61a1944b732570cf33d021e5"},"answer":"EF","axis":"Orthogonal-XInside-YFull","clicks":2,"condition":"321","correct":1,"explicit":3,"impasse":2,"orth_correct":0,"q":13,"question":"meets","rt":23990,"session":"a15839275","subject":"9PELV"},{"_id":{"$oid":"61a1944b732570cf33d021e6"},"answer":"X","axis":"Orthogonal-XInside-YFull","clicks":1,"condition":"321","correct":1,"explicit":3,"impasse":2,"orth_correct":0,"q":14,"question":"endtime","rt":5633,"session":"a15839275","subject":"9PELV"},{"_id":{"$oid":"61a1944b732570cf33d021e7"},"answer":"KX","axis":"Orthogonal-XInside-YFull","clicks":2,"condition":"321","correct":1,"explicit":3,"impasse":2,"orth_correct":0,"q":15,"question":"midpoint","rt":12984,"session":"a15839275","subject":"9PELV"},{"_id":{"$oid":"61a1944b732570cf33d021f2"},"answer":"F","axis":"Orthogonal-XInside-YFull","clicks":1,"condition":"221","correct":1,"explicit":2,"impasse":2,"orth_correct":0,"q":1,"question":"starttime","rt":10702,"session":"a16031916","subject":"UDSVX"},{"_id":{"$oid":"61a1944b732570cf33d021f3"},"answer":"K","axis":"Orthogonal-XInside-YFull","clicks":1,"condition":"221","correct":1,"explicit":2,"impasse":2,"orth_correct":0,"q":2,"question":"starts","rt":9557,"session":"a16031916","subject":"UDSVX"},{"_id":{"$oid":"61a1944b732570cf33d021f4"},"answer":"F","axis":"Orthogonal-XInside-YFull","clicks":1,"condition":"221","correct":1,"explicit":2,"impasse":2,"orth_correct":0,"q":3,"question":"meets","rt":11701,"session":"a16031916","subject":"UDSVX"},{"_id":{"$oid":"61a1944b732570cf33d021f5"},"answer":"H","axis":"Orthogonal-XInside-YFull","clicks":1,"condition":"221","correct":1,"explicit":2,"impasse":2,"orth_correct":0,"q":4,"question":"endtime","rt":7379,"session":"a16031916","subject":"UDSVX"},{"_id":{"$oid":"61a1944b732570cf33d021f6"},"answer":"A","axis":"Orthogonal-XInside-YFull","clicks":1,"condition":"221","correct":1,"explicit":2,"impasse":2,"orth_correct":0,"q":5,"question":"midpoint","rt":12658,"session":"a16031916","subject":"UDSVX"},{"_id":{"$oid":"61a1944b732570cf33d021f7"},"answer":"EG","axis":"Orthogonal-XInside-YFull","clicks":2.5,"condition":"221","correct":1,"explicit":2,"impasse":2,"orth_correct":1,"q":6,"question":"duration","rt":15912,"session":"a16031916","subject":"UDSVX"},{"_id":{"$oid":"61a1944b732570cf33d021f8"},"answer":"XO","axis":"Orthogonal-XInside-YFull","clicks":2,"condition":"221","correct":1,"explicit":2,"impasse":2,"orth_correct":0,"q":7,"question":"duration+starts","rt":12797,"session":"a16031916","subject":"UDSVX"},{"_id":{"$oid":"61a1944b732570cf33d021f9"},"answer":"M","axis":"Orthogonal-XInside-YFull","clicks":1,"condition":"221","correct":0,"explicit":2,"impasse":2,"orth_correct":0,"q":8,"question":"duration+contained","rt":36997,"session":"a16031916","subject":"UDSVX"},{"_id":{"$oid":"61a1944b732570cf33d021fa"},"answer":"I","axis":"Orthogonal-XInside-YFull","clicks":1.5,"condition":"221","correct":1,"explicit":2,"impasse":2,"orth_correct":1,"q":9,"question":"starttime+before+endtime+during","rt":22156,"session":"a16031916","subject":"UDSVX"},{"_id":{"$oid":"61a1944b732570cf33d021fb"},"answer":"E","axis":"Orthogonal-XInside-YFull","clicks":1,"condition":"221","correct":1,"explicit":2,"impasse":2,"orth_correct":0,"q":10,"question":"ends","rt":10915,"session":"a16031916","subject":"UDSVX"},{"_id":{"$oid":"61a1944b732570cf33d021fc"},"answer":"ML","axis":"Orthogonal-XInside-YFull","clicks":2,"condition":"221","correct":1,"explicit":2,"impasse":2,"orth_correct":0,"q":11,"question":"starttime","rt":22706,"session":"a16031916","subject":"UDSVX"},{"_id":{"$oid":"61a1944b732570cf33d021fd"},"answer":"G","axis":"Orthogonal-XInside-YFull","clicks":1,"condition":"221","correct":1,"explicit":2,"impasse":2,"orth_correct":0,"q":12,"question":"starts","rt":10726,"session":"a16031916","subject":"UDSVX"},{"_id":{"$oid":"61a1944b732570cf33d021fe"},"answer":"EF","axis":"Orthogonal-XInside-YFull","clicks":2.5,"condition":"221","correct":1,"explicit":2,"impasse":2,"orth_correct":0,"q":13,"question":"meets","rt":12986,"session":"a16031916","subject":"UDSVX"},{"_id":{"$oid":"61a1944b732570cf33d021ff"},"answer":"X","axis":"Orthogonal-XInside-YFull","clicks":1,"condition":"221","correct":1,"explicit":2,"impasse":2,"orth_correct":0,"q":14,"question":"endtime","rt":10510,"session":"a16031916","subject":"UDSVX"},{"_id":{"$oid":"61a1944b732570cf33d02200"},"answer":"KX","axis":"Orthogonal-XInside-YFull","clicks":2.5,"condition":"221","correct":1,"explicit":2,"impasse":2,"orth_correct":0,"q":15,"question":"midpoint","rt":13371,"session":"a16031916","subject":"UDSVX"},{"_id":{"$oid":"61a1944b732570cf33d0220b"},"answer":"F","axis":"Orthogonal-XInside-YFull","clicks":1,"condition":"111","correct":1,"explicit":1,"impasse":1,"orth_correct":0,"q":1,"question":"starttime","rt":43203,"session":"hollanlab","subject":"5N035"},{"_id":{"$oid":"61a1944b732570cf33d0220c"},"answer":"K","axis":"Orthogonal-XInside-YFull","clicks":1,"condition":"111","correct":1,"explicit":1,"impasse":1,"orth_correct":0,"q":2,"question":"starts","rt":14348,"session":"hollanlab","subject":"5N035"},{"_id":{"$oid":"61a1944b732570cf33d0220d"},"answer":"F","axis":"Orthogonal-XInside-YFull","clicks":1,"condition":"111","correct":1,"explicit":1,"impasse":1,"orth_correct":0,"q":3,"question":"meets","rt":10288,"session":"hollanlab","subject":"5N035"},{"_id":{"$oid":"61a1944b732570cf33d0220e"},"answer":"H","axis":"Orthogonal-XInside-YFull","clicks":1,"condition":"111","correct":1,"explicit":1,"impasse":1,"orth_correct":0,"q":4,"question":"endtime","rt":10284,"session":"hollanlab","subject":"5N035"},{"_id":{"$oid":"61a1944b732570cf33d0220f"},"answer":"O","axis":"Orthogonal-XInside-YFull","clicks":1,"condition":"111","correct":1,"explicit":1,"impasse":1,"orth_correct":0,"q":5,"question":"midpoint","rt":18005,"session":"hollanlab","subject":"5N035"},{"_id":{"$oid":"61a1944b732570cf33d02210"},"answer":"EG","axis":"Orthogonal-XInside-YFull","clicks":2,"condition":"111","correct":1,"explicit":1,"impasse":1,"orth_correct":1,"q":6,"question":"duration","rt":9001,"session":"hollanlab","subject":"5N035"},{"_id":{"$oid":"61a1944b732570cf33d02211"},"answer":"XO","axis":"Orthogonal-XInside-YFull","clicks":2,"condition":"111","correct":1,"explicit":1,"impasse":1,"orth_correct":0,"q":7,"question":"duration+starts","rt":33719,"session":"hollanlab","subject":"5N035"},{"_id":{"$oid":"61a1944b732570cf33d02212"},"answer":"G","axis":"Orthogonal-XInside-YFull","clicks":1,"condition":"111","correct":1,"explicit":1,"impasse":1,"orth_correct":0,"q":8,"question":"duration+contained","rt":91701,"session":"hollanlab","subject":"5N035"},{"_id":{"$oid":"61a1944b732570cf33d02213"},"answer":"F","axis":"Orthogonal-XInside-YFull","clicks":1.5,"condition":"111","correct":0,"explicit":1,"impasse":1,"orth_correct":0,"q":9,"question":"starttime+before+endtime+during","rt":38132,"session":"hollanlab","subject":"5N035"},{"_id":{"$oid":"61a1944b732570cf33d02214"},"answer":"E","axis":"Orthogonal-XInside-YFull","clicks":1,"condition":"111","correct":1,"explicit":1,"impasse":1,"orth_correct":0,"q":10,"question":"ends","rt":13149,"session":"hollanlab","subject":"5N035"},{"_id":{"$oid":"61a1944b732570cf33d02215"},"answer":"ML","axis":"Orthogonal-XInside-YFull","clicks":2,"condition":"111","correct":1,"explicit":1,"impasse":1,"orth_correct":0,"q":11,"question":"starttime","rt":9225,"session":"hollanlab","subject":"5N035"},{"_id":{"$oid":"61a1944b732570cf33d02216"},"answer":"G","axis":"Orthogonal-XInside-YFull","clicks":1,"condition":"111","correct":1,"explicit":1,"impasse":1,"orth_correct":0,"q":12,"question":"starts","rt":10726,"session":"hollanlab","subject":"5N035"},{"_id":{"$oid":"61a1944b732570cf33d02217"},"answer":"EF","axis":"Orthogonal-XInside-YFull","clicks":2,"condition":"111","correct":1,"explicit":1,"impasse":1,"orth_correct":0,"q":13,"question":"meets","rt":19261,"session":"hollanlab","subject":"5N035"},{"_id":{"$oid":"61a1944b732570cf33d02218"},"answer":"X","axis":"Orthogonal-XInside-YFull","clicks":1,"condition":"111","correct":1,"explicit":1,"impasse":1,"orth_correct":0,"q":14,"question":"endtime","rt":12928,"session":"hollanlab","subject":"5N035"},{"_id":{"$oid":"61a1944b732570cf33d02219"},"answer":"KX","axis":"Orthogonal-XInside-YFull","clicks":2,"condition":"111","correct":1,"explicit":1,"impasse":1,"orth_correct":0,"q":15,"question":"midpoint","rt":20610,"session":"hollanlab","subject":"5N035"},{"_id":{"$oid":"61a1944b732570cf33d02224"},"answer":"F","axis":"Orthogonal-XInside-YFull","clicks":1,"condition":"121","correct":1,"explicit":1,"impasse":2,"orth_correct":0,"q":1,"question":"starttime","rt":180359,"session":"a15673149","subject":"1SY41"},{"_id":{"$oid":"61a1944b732570cf33d02225"},"answer":"K","axis":"Orthogonal-XInside-YFull","clicks":1,"condition":"121","correct":1,"explicit":1,"impasse":2,"orth_correct":0,"q":2,"question":"starts","rt":51100,"session":"a15673149","subject":"1SY41"},{"_id":{"$oid":"61a1944b732570cf33d02226"},"answer":"F","axis":"Orthogonal-XInside-YFull","clicks":1.5,"condition":"121","correct":1,"explicit":1,"impasse":2,"orth_correct":0,"q":3,"question":"meets","rt":22193,"session":"a15673149","subject":"1SY41"},{"_id":{"$oid":"61a1944b732570cf33d02227"},"answer":"H","axis":"Orthogonal-XInside-YFull","clicks":1,"condition":"121","correct":1,"explicit":1,"impasse":2,"orth_correct":0,"q":4,"question":"endtime","rt":16240,"session":"a15673149","subject":"1SY41"},{"_id":{"$oid":"61a1944b732570cf33d02228"},"answer":"A","axis":"Orthogonal-XInside-YFull","clicks":3.5,"condition":"121","correct":1,"explicit":1,"impasse":2,"orth_correct":0,"q":5,"question":"midpoint","rt":91223,"session":"a15673149","subject":"1SY41"},{"_id":{"$oid":"61a1944b732570cf33d02229"},"answer":"EG","axis":"Orthogonal-XInside-YFull","clicks":2,"condition":"121","correct":1,"explicit":1,"impasse":2,"orth_correct":1,"q":6,"question":"duration","rt":8967,"session":"a15673149","subject":"1SY41"},{"_id":{"$oid":"61a1944b732570cf33d0222a"},"answer":"XO","axis":"Orthogonal-XInside-YFull","clicks":3,"condition":"121","correct":1,"explicit":1,"impasse":2,"orth_correct":0,"q":7,"question":"duration+starts","rt":34994,"session":"a15673149","subject":"1SY41"},{"_id":{"$oid":"61a1944b732570cf33d0222b"},"answer":"G","axis":"Orthogonal-XInside-YFull","clicks":5,"condition":"121","correct":1,"explicit":1,"impasse":2,"orth_correct":0,"q":8,"question":"duration+contained","rt":84549,"session":"a15673149","subject":"1SY41"},{"_id":{"$oid":"61a1944b732570cf33d0222c"},"answer":"I","axis":"Orthogonal-XInside-YFull","clicks":1,"condition":"121","correct":1,"explicit":1,"impasse":2,"orth_correct":1,"q":9,"question":"starttime+before+endtime+during","rt":39423,"session":"a15673149","subject":"1SY41"},{"_id":{"$oid":"61a1944b732570cf33d0222d"},"answer":"E","axis":"Orthogonal-XInside-YFull","clicks":1.5,"condition":"121","correct":1,"explicit":1,"impasse":2,"orth_correct":0,"q":10,"question":"ends","rt":20664,"session":"a15673149","subject":"1SY41"},{"_id":{"$oid":"61a1944b732570cf33d0222e"},"answer":"ML","axis":"Orthogonal-XInside-YFull","clicks":2,"condition":"121","correct":1,"explicit":1,"impasse":2,"orth_correct":0,"q":11,"question":"starttime","rt":10349,"session":"a15673149","subject":"1SY41"},{"_id":{"$oid":"61a1944b732570cf33d0222f"},"answer":"G","axis":"Orthogonal-XInside-YFull","clicks":1,"condition":"121","correct":1,"explicit":1,"impasse":2,"orth_correct":0,"q":12,"question":"starts","rt":19898,"session":"a15673149","subject":"1SY41"},{"_id":{"$oid":"61a1944b732570cf33d02230"},"answer":"EF","axis":"Orthogonal-XInside-YFull","clicks":2,"condition":"121","correct":1,"explicit":1,"impasse":2,"orth_correct":0,"q":13,"question":"meets","rt":12174,"session":"a15673149","subject":"1SY41"},{"_id":{"$oid":"61a1944b732570cf33d02231"},"answer":"X","axis":"Orthogonal-XInside-YFull","clicks":1,"condition":"121","correct":1,"explicit":1,"impasse":2,"orth_correct":0,"q":14,"question":"endtime","rt":15715,"session":"a15673149","subject":"1SY41"},{"_id":{"$oid":"61a1944b732570cf33d02232"},"answer":"KX","axis":"Orthogonal-XInside-YFull","clicks":4,"condition":"121","correct":1,"explicit":1,"impasse":2,"orth_correct":0,"q":15,"question":"midpoint","rt":111081,"session":"a15673149","subject":"1SY41"},{"_id":{"$oid":"61a1944b732570cf33d0223d"},"answer":"F","axis":"Orthogonal-XInside-YFull","clicks":1,"condition":"221\n221","correct":1,"explicit":2,"impasse":2,"orth_correct":0,"q":1,"question":"starttime","rt":40139,"session":"16132934","subject":"Q20EE"},{"_id":{"$oid":"61a1944b732570cf33d0223e"},"answer":"K","axis":"Orthogonal-XInside-YFull","clicks":1.5,"condition":"221\n221","correct":1,"explicit":2,"impasse":2,"orth_correct":0,"q":2,"question":"starts","rt":6807,"session":"16132934","subject":"Q20EE"},{"_id":{"$oid":"61a1944b732570cf33d0223f"},"answer":"F","axis":"Orthogonal-XInside-YFull","clicks":1.5,"condition":"221\n221","correct":1,"explicit":2,"impasse":2,"orth_correct":0,"q":3,"question":"meets","rt":7734,"session":"16132934","subject":"Q20EE"},{"_id":{"$oid":"61a1944b732570cf33d02240"},"answer":"H","axis":"Orthogonal-XInside-YFull","clicks":1,"condition":"221\n221","correct":1,"explicit":2,"impasse":2,"orth_correct":0,"q":4,"question":"endtime","rt":5383,"session":"16132934","subject":"Q20EE"},{"_id":{"$oid":"61a1944b732570cf33d02241"},"answer":"F","axis":"Orthogonal-XInside-YFull","clicks":1.5,"condition":"221\n221","correct":0,"explicit":2,"impasse":2,"orth_correct":0,"q":5,"question":"midpoint","rt":30994,"session":"16132934","subject":"Q20EE"},{"_id":{"$oid":"61a1944b732570cf33d02242"},"answer":"EG","axis":"Orthogonal-XInside-YFull","clicks":2,"condition":"221\n221","correct":1,"explicit":2,"impasse":2,"orth_correct":1,"q":6,"question":"duration","rt":3978,"session":"16132934","subject":"Q20EE"},{"_id":{"$oid":"61a1944b732570cf33d02243"},"answer":"FB","axis":"Orthogonal-XInside-YFull","clicks":3,"condition":"221\n221","correct":0,"explicit":2,"impasse":2,"orth_correct":1,"q":7,"question":"duration+starts","rt":18646,"session":"16132934","subject":"Q20EE"},{"_id":{"$oid":"61a1944b732570cf33d02244"},"answer":"G","axis":"Orthogonal-XInside-YFull","clicks":1,"condition":"221\n221","correct":1,"explicit":2,"impasse":2,"orth_correct":0,"q":8,"question":"duration+contained","rt":98059,"session":"16132934","subject":"Q20EE"},{"_id":{"$oid":"61a1944b732570cf33d02245"},"answer":"E","axis":"Orthogonal-XInside-YFull","clicks":1,"condition":"221\n221","correct":0,"explicit":2,"impasse":2,"orth_correct":0,"q":9,"question":"starttime+before+endtime+during","rt":35178,"session":"16132934","subject":"Q20EE"},{"_id":{"$oid":"61a1944b732570cf33d02246"},"answer":"E","axis":"Orthogonal-XInside-YFull","clicks":1.5,"condition":"221\n221","correct":1,"explicit":2,"impasse":2,"orth_correct":0,"q":10,"question":"ends","rt":26114,"session":"16132934","subject":"Q20EE"},{"_id":{"$oid":"61a1944b732570cf33d02247"},"answer":"ML","axis":"Orthogonal-XInside-YFull","clicks":2.5,"condition":"221\n221","correct":1,"explicit":2,"impasse":2,"orth_correct":0,"q":11,"question":"starttime","rt":7151,"session":"16132934","subject":"Q20EE"},{"_id":{"$oid":"61a1944b732570cf33d02248"},"answer":"G","axis":"Orthogonal-XInside-YFull","clicks":1,"condition":"221\n221","correct":1,"explicit":2,"impasse":2,"orth_correct":0,"q":12,"question":"starts","rt":4892,"session":"16132934","subject":"Q20EE"},{"_id":{"$oid":"61a1944b732570cf33d02249"},"answer":"EF","axis":"Orthogonal-XInside-YFull","clicks":2,"condition":"221\n221","correct":1,"explicit":2,"impasse":2,"orth_correct":0,"q":13,"question":"meets","rt":12765,"session":"16132934","subject":"Q20EE"},{"_id":{"$oid":"61a1944b732570cf33d0224a"},"answer":"X","axis":"Orthogonal-XInside-YFull","clicks":1.5,"condition":"221\n221","correct":1,"explicit":2,"impasse":2,"orth_correct":0,"q":14,"question":"endtime","rt":7350,"session":"16132934","subject":"Q20EE"},{"_id":{"$oid":"61a1944b732570cf33d0224b"},"answer":"KX","axis":"Orthogonal-XInside-YFull","clicks":2,"condition":"221\n221","correct":1,"explicit":2,"impasse":2,"orth_correct":0,"q":15,"question":"midpoint","rt":16568,"session":"16132934","subject":"Q20EE"},{"_id":{"$oid":"61a1944b732570cf33d02256"},"answer":"F","axis":"Orthogonal-XInside-YFull","clicks":3,"condition":"321","correct":1,"explicit":3,"impasse":2,"orth_correct":0,"q":1,"question":"starttime","rt":139697,"session":"a15378348","subject":"ZV99C"},{"_id":{"$oid":"61a1944b732570cf33d02257"},"answer":"K","axis":"Orthogonal-XInside-YFull","clicks":1,"condition":"321","correct":1,"explicit":3,"impasse":2,"orth_correct":0,"q":2,"question":"starts","rt":17835,"session":"a15378348","subject":"ZV99C"},{"_id":{"$oid":"61a1944b732570cf33d02258"},"answer":"F","axis":"Orthogonal-XInside-YFull","clicks":1,"condition":"321","correct":1,"explicit":3,"impasse":2,"orth_correct":0,"q":3,"question":"meets","rt":7115,"session":"a15378348","subject":"ZV99C"},{"_id":{"$oid":"61a1944b732570cf33d02259"},"answer":"H","axis":"Orthogonal-XInside-YFull","clicks":1.5,"condition":"321","correct":1,"explicit":3,"impasse":2,"orth_correct":0,"q":4,"question":"endtime","rt":12609,"session":"a15378348","subject":"ZV99C"},{"_id":{"$oid":"61a1944b732570cf33d0225a"},"answer":"A","axis":"Orthogonal-XInside-YFull","clicks":1,"condition":"321","correct":1,"explicit":3,"impasse":2,"orth_correct":0,"q":5,"question":"midpoint","rt":40317,"session":"a15378348","subject":"ZV99C"},{"_id":{"$oid":"61a1944b732570cf33d0225b"},"answer":"EG","axis":"Orthogonal-XInside-YFull","clicks":2.5,"condition":"321","correct":1,"explicit":3,"impasse":2,"orth_correct":1,"q":6,"question":"duration","rt":15631,"session":"a15378348","subject":"ZV99C"},{"_id":{"$oid":"61a1944b732570cf33d0225c"},"answer":"XO","axis":"Orthogonal-XInside-YFull","clicks":2,"condition":"321","correct":1,"explicit":3,"impasse":2,"orth_correct":0,"q":7,"question":"duration+starts","rt":53859,"session":"a15378348","subject":"ZV99C"},{"_id":{"$oid":"61a1944b732570cf33d0225d"},"answer":"AG","axis":"Orthogonal-XInside-YFull","clicks":2.5,"condition":"321","correct":0,"explicit":3,"impasse":2,"orth_correct":0,"q":8,"question":"duration+contained","rt":84632,"session":"a15378348","subject":"ZV99C"},{"_id":{"$oid":"61a1944b732570cf33d0225e"},"answer":"I","axis":"Orthogonal-XInside-YFull","clicks":1,"condition":"321","correct":1,"explicit":3,"impasse":2,"orth_correct":1,"q":9,"question":"starttime+before+endtime+during","rt":55692,"session":"a15378348","subject":"ZV99C"},{"_id":{"$oid":"61a1944b732570cf33d0225f"},"answer":"E","axis":"Orthogonal-XInside-YFull","clicks":1,"condition":"321","correct":1,"explicit":3,"impasse":2,"orth_correct":0,"q":10,"question":"ends","rt":19172,"session":"a15378348","subject":"ZV99C"},{"_id":{"$oid":"61a1944b732570cf33d02260"},"answer":"ML","axis":"Orthogonal-XInside-YFull","clicks":2,"condition":"321","correct":1,"explicit":3,"impasse":2,"orth_correct":0,"q":11,"question":"starttime","rt":22780,"session":"a15378348","subject":"ZV99C"},{"_id":{"$oid":"61a1944b732570cf33d02261"},"answer":"G","axis":"Orthogonal-XInside-YFull","clicks":1.5,"condition":"321","correct":1,"explicit":3,"impasse":2,"orth_correct":0,"q":12,"question":"starts","rt":16798,"session":"a15378348","subject":"ZV99C"},{"_id":{"$oid":"61a1944b732570cf33d02262"},"answer":"EF","axis":"Orthogonal-XInside-YFull","clicks":2.5,"condition":"321","correct":1,"explicit":3,"impasse":2,"orth_correct":0,"q":13,"question":"meets","rt":28572,"session":"a15378348","subject":"ZV99C"},{"_id":{"$oid":"61a1944b732570cf33d02263"},"answer":"X","axis":"Orthogonal-XInside-YFull","clicks":1.5,"condition":"321","correct":1,"explicit":3,"impasse":2,"orth_correct":0,"q":14,"question":"endtime","rt":13832,"session":"a15378348","subject":"ZV99C"},{"_id":{"$oid":"61a1944b732570cf33d02264"},"answer":"KX","axis":"Orthogonal-XInside-YFull","clicks":2,"condition":"321","correct":1,"explicit":3,"impasse":2,"orth_correct":0,"q":15,"question":"midpoint","rt":24012,"session":"a15378348","subject":"ZV99C"},{"_id":{"$oid":"61a1944b732570cf33d0226f"},"answer":"F","axis":"Orthogonal-XInside-YFull","clicks":1,"condition":"211","correct":1,"explicit":2,"impasse":1,"orth_correct":0,"q":1,"question":"starttime","rt":73253,"session":"a15960387","subject":"SQ3V5"},{"_id":{"$oid":"61a1944b732570cf33d02270"},"answer":"K","axis":"Orthogonal-XInside-YFull","clicks":1,"condition":"211","correct":1,"explicit":2,"impasse":1,"orth_correct":0,"q":2,"question":"starts","rt":19423,"session":"a15960387","subject":"SQ3V5"},{"_id":{"$oid":"61a1944b732570cf33d02271"},"answer":"F","axis":"Orthogonal-XInside-YFull","clicks":1,"condition":"211","correct":1,"explicit":2,"impasse":1,"orth_correct":0,"q":3,"question":"meets","rt":26536,"session":"a15960387","subject":"SQ3V5"},{"_id":{"$oid":"61a1944b732570cf33d02272"},"answer":"H","axis":"Orthogonal-XInside-YFull","clicks":1,"condition":"211","correct":1,"explicit":2,"impasse":1,"orth_correct":0,"q":4,"question":"endtime","rt":26294,"session":"a15960387","subject":"SQ3V5"},{"_id":{"$oid":"61a1944b732570cf33d02273"},"answer":"O","axis":"Orthogonal-XInside-YFull","clicks":5.5,"condition":"211","correct":1,"explicit":2,"impasse":1,"orth_correct":0,"q":5,"question":"midpoint","rt":118328,"session":"a15960387","subject":"SQ3V5"},{"_id":{"$oid":"61a1944b732570cf33d02274"},"answer":"EG","axis":"Orthogonal-XInside-YFull","clicks":2,"condition":"211","correct":1,"explicit":2,"impasse":1,"orth_correct":1,"q":6,"question":"duration","rt":45060,"session":"a15960387","subject":"SQ3V5"},{"_id":{"$oid":"61a1944b732570cf33d02275"},"answer":"XO","axis":"Orthogonal-XInside-YFull","clicks":2,"condition":"211","correct":1,"explicit":2,"impasse":1,"orth_correct":0,"q":7,"question":"duration+starts","rt":78710,"session":"a15960387","subject":"SQ3V5"},{"_id":{"$oid":"61a1944b732570cf33d02276"},"answer":"G","axis":"Orthogonal-XInside-YFull","clicks":1,"condition":"211","correct":1,"explicit":2,"impasse":1,"orth_correct":0,"q":8,"question":"duration+contained","rt":104796,"session":"a15960387","subject":"SQ3V5"},{"_id":{"$oid":"61a1944b732570cf33d02277"},"answer":"I","axis":"Orthogonal-XInside-YFull","clicks":3.5,"condition":"211","correct":1,"explicit":2,"impasse":1,"orth_correct":1,"q":9,"question":"starttime+before+endtime+during","rt":88267,"session":"a15960387","subject":"SQ3V5"},{"_id":{"$oid":"61a1944b732570cf33d02278"},"answer":"E","axis":"Orthogonal-XInside-YFull","clicks":1,"condition":"211","correct":1,"explicit":2,"impasse":1,"orth_correct":0,"q":10,"question":"ends","rt":48038,"session":"a15960387","subject":"SQ3V5"},{"_id":{"$oid":"61a1944b732570cf33d02279"},"answer":"ML","axis":"Orthogonal-XInside-YFull","clicks":2.5,"condition":"211","correct":1,"explicit":2,"impasse":1,"orth_correct":0,"q":11,"question":"starttime","rt":56731,"session":"a15960387","subject":"SQ3V5"},{"_id":{"$oid":"61a1944b732570cf33d0227a"},"answer":"G","axis":"Orthogonal-XInside-YFull","clicks":1,"condition":"211","correct":1,"explicit":2,"impasse":1,"orth_correct":0,"q":12,"question":"starts","rt":30188,"session":"a15960387","subject":"SQ3V5"},{"_id":{"$oid":"61a1944b732570cf33d0227b"},"answer":"EF","axis":"Orthogonal-XInside-YFull","clicks":2.5,"condition":"211","correct":1,"explicit":2,"impasse":1,"orth_correct":0,"q":13,"question":"meets","rt":50521,"session":"a15960387","subject":"SQ3V5"},{"_id":{"$oid":"61a1944b732570cf33d0227c"},"answer":"X","axis":"Orthogonal-XInside-YFull","clicks":1,"condition":"211","correct":1,"explicit":2,"impasse":1,"orth_correct":0,"q":14,"question":"endtime","rt":24960,"session":"a15960387","subject":"SQ3V5"},{"_id":{"$oid":"61a1944b732570cf33d0227d"},"answer":"KX","axis":"Orthogonal-XInside-YFull","clicks":2,"condition":"211","correct":1,"explicit":2,"impasse":1,"orth_correct":0,"q":15,"question":"midpoint","rt":38008,"session":"a15960387","subject":"SQ3V5"},{"_id":{"$oid":"61a1944b732570cf33d02288"},"answer":"F","axis":"Orthogonal-XInside-YFull","clicks":1.5,"condition":"321","correct":1,"explicit":3,"impasse":2,"orth_correct":0,"q":1,"question":"starttime","rt":38688,"session":"a15928667","subject":"CPRP9"},{"_id":{"$oid":"61a1944b732570cf33d02289"},"answer":"K","axis":"Orthogonal-XInside-YFull","clicks":1,"condition":"321","correct":1,"explicit":3,"impasse":2,"orth_correct":0,"q":2,"question":"starts","rt":16352,"session":"a15928667","subject":"CPRP9"},{"_id":{"$oid":"61a1944b732570cf33d0228a"},"answer":"F","axis":"Orthogonal-XInside-YFull","clicks":1,"condition":"321","correct":1,"explicit":3,"impasse":2,"orth_correct":0,"q":3,"question":"meets","rt":13493,"session":"a15928667","subject":"CPRP9"},{"_id":{"$oid":"61a1944b732570cf33d0228b"},"answer":"H","axis":"Orthogonal-XInside-YFull","clicks":1,"condition":"321","correct":1,"explicit":3,"impasse":2,"orth_correct":0,"q":4,"question":"endtime","rt":10228,"session":"a15928667","subject":"CPRP9"},{"_id":{"$oid":"61a1944b732570cf33d0228c"},"answer":"A","axis":"Orthogonal-XInside-YFull","clicks":1,"condition":"321","correct":1,"explicit":3,"impasse":2,"orth_correct":0,"q":5,"question":"midpoint","rt":47558,"session":"a15928667","subject":"CPRP9"},{"_id":{"$oid":"61a1944b732570cf33d0228d"},"answer":"EG","axis":"Orthogonal-XInside-YFull","clicks":2,"condition":"321","correct":1,"explicit":3,"impasse":2,"orth_correct":1,"q":6,"question":"duration","rt":8469,"session":"a15928667","subject":"CPRP9"},{"_id":{"$oid":"61a1944b732570cf33d0228e"},"answer":"FB","axis":"Orthogonal-XInside-YFull","clicks":2,"condition":"321","correct":0,"explicit":3,"impasse":2,"orth_correct":1,"q":7,"question":"duration+starts","rt":32075,"session":"a15928667","subject":"CPRP9"},{"_id":{"$oid":"61a1944b732570cf33d0228f"},"answer":"J","axis":"Orthogonal-XInside-YFull","clicks":1,"condition":"321","correct":0,"explicit":3,"impasse":2,"orth_correct":0,"q":8,"question":"duration+contained","rt":173353,"session":"a15928667","subject":"CPRP9"},{"_id":{"$oid":"61a1944b732570cf33d02290"},"answer":"I","axis":"Orthogonal-XInside-YFull","clicks":1,"condition":"321","correct":1,"explicit":3,"impasse":2,"orth_correct":1,"q":9,"question":"starttime+before+endtime+during","rt":22490,"session":"a15928667","subject":"CPRP9"},{"_id":{"$oid":"61a1944b732570cf33d02291"},"answer":"B","axis":"Orthogonal-XInside-YFull","clicks":1,"condition":"321","correct":0,"explicit":3,"impasse":2,"orth_correct":0,"q":10,"question":"ends","rt":20386,"session":"a15928667","subject":"CPRP9"},{"_id":{"$oid":"61a1944b732570cf33d02292"},"answer":"M","axis":"Orthogonal-XInside-YFull","clicks":1,"condition":"321","correct":0,"explicit":3,"impasse":2,"orth_correct":0,"q":11,"question":"starttime","rt":6756,"session":"a15928667","subject":"CPRP9"},{"_id":{"$oid":"61a1944b732570cf33d02293"},"answer":"B","axis":"Orthogonal-XInside-YFull","clicks":1,"condition":"321","correct":0,"explicit":3,"impasse":2,"orth_correct":1,"q":12,"question":"starts","rt":12664,"session":"a15928667","subject":"CPRP9"},{"_id":{"$oid":"61a1944b732570cf33d02294"},"answer":"EF","axis":"Orthogonal-XInside-YFull","clicks":2,"condition":"321","correct":1,"explicit":3,"impasse":2,"orth_correct":0,"q":13,"question":"meets","rt":29530,"session":"a15928667","subject":"CPRP9"},{"_id":{"$oid":"61a1944b732570cf33d02295"},"answer":"X","axis":"Orthogonal-XInside-YFull","clicks":1,"condition":"321","correct":1,"explicit":3,"impasse":2,"orth_correct":0,"q":14,"question":"endtime","rt":27937,"session":"a15928667","subject":"CPRP9"},{"_id":{"$oid":"61a1944b732570cf33d02296"},"answer":"X","axis":"Orthogonal-XInside-YFull","clicks":1,"condition":"321","correct":0,"explicit":3,"impasse":2,"orth_correct":0,"q":15,"question":"midpoint","rt":6778,"session":"a15928667","subject":"CPRP9"},{"_id":{"$oid":"61a1944b732570cf33d022a1"},"answer":"F","axis":"Orthogonal-XInside-YFull","clicks":3,"condition":"321","correct":1,"explicit":3,"impasse":2,"orth_correct":0,"q":1,"question":"starttime","rt":44265,"session":"a15543958","subject":"FW9D5"},{"_id":{"$oid":"61a1944b732570cf33d022a2"},"answer":"K","axis":"Orthogonal-XInside-YFull","clicks":1,"condition":"321","correct":1,"explicit":3,"impasse":2,"orth_correct":0,"q":2,"question":"starts","rt":13135,"session":"a15543958","subject":"FW9D5"},{"_id":{"$oid":"61a1944b732570cf33d022a3"},"answer":"F","axis":"Orthogonal-XInside-YFull","clicks":1,"condition":"321","correct":1,"explicit":3,"impasse":2,"orth_correct":0,"q":3,"question":"meets","rt":7893,"session":"a15543958","subject":"FW9D5"},{"_id":{"$oid":"61a1944b732570cf33d022a4"},"answer":"H","axis":"Orthogonal-XInside-YFull","clicks":1.5,"condition":"321","correct":1,"explicit":3,"impasse":2,"orth_correct":0,"q":4,"question":"endtime","rt":13097,"session":"a15543958","subject":"FW9D5"},{"_id":{"$oid":"61a1944b732570cf33d022a5"},"answer":"A","axis":"Orthogonal-XInside-YFull","clicks":1,"condition":"321","correct":1,"explicit":3,"impasse":2,"orth_correct":0,"q":5,"question":"midpoint","