"block","answer","correct","scaffold","question","scenario","graph","condition","session","experiment","subject","time_elapsed","trial_index","rt","rt_sec","q_order","score","order","pretty_condition","q","study"
"linear_scaffolded","HO",1,"none","start","axis","linear","0","november","experiment","5HJKF",291750,5,14996,15,1,"1","LM-First","control","1","SGC2"
"linear_scaffolded","4",1,"none","end","axis","linear","0","november","experiment","5HJKF",303092,6,10087,10,2,"1","LM-First","control","2","SGC2"
"linear_scaffolded","ACEFHIKL",0,"none","duration","axis","linear","0","november","experiment","5HJKF",346136,7,41790,42,3,"0","LM-First","control","3","SGC2"
"linear_scaffolded","8",1,"none","midpoint","axis","linear","0","november","experiment","5HJKF",364081,8,16685,17,4,"1","LM-First","control","4","SGC2"
"linear_scaffolded","10",0,"none","start+overlap","axis","linear","0","november","experiment","5HJKF",378644,9,13293,13,5,"0","LM-First","control","5","SGC2"
"linear_testing","CF",0,"none","overlap+overlap","axis","linear","0","november","experiment","5HJKF",388569,10,8669,9,6,"0","LM-First","control","6","SGC2"
"linear_testing","9",1,"none","start+duration","axis","linear","0","november","experiment","5HJKF",424432,11,34601,35,7,"1","LM-First","control","7","SGC2"
"linear_testing","GO",1,"none","finishes","axis","linear","0","november","experiment","5HJKF",439736,12,14053,14,8,"1","LM-First","control","8","SGC2"
"linear_testing","GHLO",0,"none","before+overlap","axis","linear","0","november","experiment","5HJKF",466721,13,25723,26,9,"0","LM-First","control","9","SGC2"
"linear_testing","DNO",0,"none","contain+duration","axis","linear","0","november","experiment","5HJKF",497249,14,29270,29,10,"0","LM-First","control","10","SGC2"
"linear_testing","FMO",1,"none","during","axis","linear","0","november","experiment","5HJKF",522369,15,23863,24,11,"1","LM-First","control","11","SGC2"
"linear_testing","DJMNO",0,"none","meets","axis","linear","0","november","experiment","5HJKF",581699,16,58067,58,12,"0","LM-First","control","12","SGC2"
"linear_testing","6",1,"none","starts","axis","linear","0","november","experiment","5HJKF",612544,17,29587,30,13,"1","LM-First","control","13","SGC2"
"linear_testing","G",1,"none","starts+finishes","axis","linear","0","november","experiment","5HJKF",626953,18,12976,13,14,"1","LM-First","control","14","SGC2"
"linear_testing","G",0,"none","during+overlap","axis","linear","0","november","experiment","5HJKF",653770,19,25561,26,15,"0","LM-First","control","15","SGC2"
"triangular_scaffolded",NA,0,"none","start","longmire","triangular","0","november","experiment","5HJKF",685359,21,20958,21,1,"0","LM-First","control","1","SGC2"
"triangular_scaffolded","MN",0,"none","end","longmire","triangular","0","november","experiment","5HJKF",695888,22,9276,9,2,"0","LM-First","control","2","SGC2"
"triangular_scaffolded","GO",1,"none","duration","longmire","triangular","0","november","experiment","5HJKF",709257,23,12108,12,3,"1","LM-First","control","3","SGC2"
"triangular_scaffolded","1",1,"none","midpoint","longmire","triangular","0","november","experiment","5HJKF",737954,24,27427,27,4,"1","LM-First","control","4","SGC2"
"triangular_scaffolded","GL",0,"none","start+overlap","longmire","triangular","0","november","experiment","5HJKF",745137,25,5921,6,5,"0","LM-First","control","5","SGC2"
"triangular_testing","ABDF",1,"none","start+duration","longmire","triangular","0","november","experiment","5HJKF",769437,26,23031,23,6,"1","LM-First","control","6","SGC2"
"triangular_testing","I",0,"none","during","longmire","triangular","0","november","experiment","5HJKF",789756,27,19067,19,7,"0","LM-First","control","7","SGC2"
"triangular_testing",NA,0,"none","starts+finishes","longmire","triangular","0","november","experiment","5HJKF",819689,28,28681,29,8,"0","LM-First","control","8","SGC2"
"triangular_testing","G",0,"none","overlap+overlap","longmire","triangular","0","november","experiment","5HJKF",825837,29,4895,5,9,"0","LM-First","control","9","SGC2"
"triangular_testing","4",0,"none","starts","longmire","triangular","0","november","experiment","5HJKF",828617,30,1516,2,10,"0","LM-First","control","10","SGC2"
"triangular_testing","D",0,"none","before+overlap","longmire","triangular","0","november","experiment","5HJKF",832035,31,2158,2,11,"0","LM-First","control","11","SGC2"
"triangular_testing","HM",0,"none","contain+duration","longmire","triangular","0","november","experiment","5HJKF",864452,32,31156,31,12,"0","LM-First","control","12","SGC2"
"triangular_testing","BF",0,"none","during+overlap","longmire","triangular","0","november","experiment","5HJKF",914899,33,49188,49,13,"0","LM-First","control","13","SGC2"
"triangular_testing",NA,0,"none","finishes","longmire","triangular","0","november","experiment","5HJKF",992089,34,75933,76,14,"0","LM-First","control","14","SGC2"
"triangular_testing","HM",0,"none","meets","longmire","triangular","0","november","experiment","5HJKF",996053,35,2539,3,15,"0","LM-First","control","15","SGC2"
"drawingTest","C1",1,"none","duration","jones","none","0","november","experiment","5HJKF",1460629,38,82734,83,NA,"1","LM-First","control",NA,"SGC2"
"drawingTest","Chris3-4pm",1,"none","overlap","jones","none","0","november","experiment","5HJKF",1543444,39,81490,81,NA,"1","LM-First","control",NA,"SGC2"
"triangular_scaffolded","G",0,"describe-what","start","axis","triangular","1","mike","reverse","6Y878",299337,5,23228,23,1,"0","TM-First","text:what","1","SGC2"
"triangular_scaffolded","6",0,"describe-what","end","axis","triangular","1","mike","reverse","6Y878",381260,6,80674,81,2,"0","TM-First","text:what","2","SGC2"
"triangular_scaffolded","AEGHIL",0,"describe-what","duration","axis","triangular","1","mike","reverse","6Y878",417085,7,34468,34,3,"0","TM-First","text:what","3","SGC2"
"triangular_scaffolded","9",0,"describe-what","midpoint","axis","triangular","1","mike","reverse","6Y878",454926,8,36594,37,4,"0","TM-First","text:what","4","SGC2"
"triangular_scaffolded","2",0,"describe-what","start+overlap","axis","triangular","1","mike","reverse","6Y878",481352,9,25184,25,5,"0","TM-First","text:what","5","SGC2"
"triangular_testing","4",0,"none","starts","axis","triangular","1","mike","reverse","6Y878",501608,10,19012,19,6,"0","TM-First","text:what","6","SGC2"
"triangular_testing","O",0,"none","during","axis","triangular","1","mike","reverse","6Y878",518356,11,15498,15,7,"0","TM-First","text:what","7","SGC2"
"triangular_testing","3",0,"none","start+duration","axis","triangular","1","mike","reverse","6Y878",546324,12,26719,27,8,"0","TM-First","text:what","8","SGC2"
"triangular_testing","E",0,"none","during+overlap","axis","triangular","1","mike","reverse","6Y878",591670,13,44101,44,9,"0","TM-First","text:what","9","SGC2"
"triangular_testing","E",0,"none","starts+finishes","axis","triangular","1","mike","reverse","6Y878",635596,14,42675,43,10,"0","TM-First","text:what","10","SGC2"
"triangular_testing","EL",0,"none","meets","axis","triangular","1","mike","reverse","6Y878",736035,15,99047,99,11,"0","TM-First","text:what","11","SGC2"
"triangular_testing","O",0,"none","finishes","axis","triangular","1","mike","reverse","6Y878",770901,16,33550,34,12,"0","TM-First","text:what","12","SGC2"
"triangular_testing","MO",0,"none","contain+duration","axis","triangular","1","mike","reverse","6Y878",809533,17,37384,37,13,"0","TM-First","text:what","13","SGC2"
"triangular_testing","F",0,"none","before+overlap","axis","triangular","1","mike","reverse","6Y878",830375,18,19596,20,14,"0","TM-First","text:what","14","SGC2"
"triangular_testing",NA,0,"none","overlap+overlap","axis","triangular","1","mike","reverse","6Y878",839816,19,8181,8,15,"0","TM-First","text:what","15","SGC2"
"linear_scaffolded","CL",0,"describe-what","start","longmire","linear","1","mike","reverse","6Y878",895315,21,34492,34,1,"0","TM-First","text:what","1","SGC2"
"linear_scaffolded","HJKLMNO",1,"describe-what","end","longmire","linear","1","mike","reverse","6Y878",925531,22,28962,29,2,"1","TM-First","text:what","2","SGC2"
"linear_scaffolded","GO",1,"describe-what","duration","longmire","linear","1","mike","reverse","6Y878",952509,23,25726,26,3,"1","TM-First","text:what","3","SGC2"
"linear_scaffolded","1",1,"describe-what","midpoint","longmire","linear","1","mike","reverse","6Y878",970858,24,17094,17,4,"1","TM-First","text:what","4","SGC2"
"linear_scaffolded","A",1,"describe-what","start+overlap","longmire","linear","1","mike","reverse","6Y878",982411,25,10298,10,5,"1","TM-First","text:what","5","SGC2"
"linear_testing","K",0,"none","during+overlap","longmire","linear","1","mike","reverse","6Y878",1004968,26,21304,21,6,"0","TM-First","text:what","6","SGC2"
"linear_testing","ABDF",1,"none","start+duration","longmire","linear","1","mike","reverse","6Y878",1032330,27,26105,26,7,"1","TM-First","text:what","7","SGC2"
"linear_testing","C",0,"none","during","longmire","linear","1","mike","reverse","6Y878",1052207,28,18612,19,8,"0","TM-First","text:what","8","SGC2"
"linear_testing","C",1,"none","starts+finishes","longmire","linear","1","mike","reverse","6Y878",1065427,29,11968,12,9,"1","TM-First","text:what","9","SGC2"
"linear_testing","AF",0,"none","before+overlap","longmire","linear","1","mike","reverse","6Y878",1082303,30,15623,16,10,"0","TM-First","text:what","10","SGC2"
"linear_testing","GO",1,"none","contain+duration","longmire","linear","1","mike","reverse","6Y878",1102371,31,18818,19,11,"1","TM-First","text:what","11","SGC2"
"linear_testing","4",0,"none","finishes","longmire","linear","1","mike","reverse","6Y878",1114536,32,10910,11,12,"0","TM-First","text:what","12","SGC2"
"linear_testing","MN",0,"none","overlap+overlap","longmire","linear","1","mike","reverse","6Y878",1129393,33,13602,14,13,"0","TM-First","text:what","13","SGC2"
"linear_testing","O",1,"none","meets","longmire","linear","1","mike","reverse","6Y878",1145180,34,14529,15,14,"1","TM-First","text:what","14","SGC2"
"linear_testing","8",0,"none","starts","longmire","linear","1","mike","reverse","6Y878",1156036,35,9596,10,15,"0","TM-First","text:what","15","SGC2"
"drawingTest","G3",0,"none","duration","jones","none","1","mike","reverse","6Y878",1554115,38,328902,329,NA,"0","TM-First","text:what",NA,"SGC2"
"drawingTest","Chris3-4pm",1,"none","overlap","jones","none","1","mike","reverse","6Y878",1596543,39,41084,41,NA,"1","TM-First","text:what",NA,"SGC2"
"linear_scaffolded","HO",1,"describe-how","start","axis","linear","2","mike","experiment","GP70L",356506,5,29186,29,1,"1","LM-First","text:how","1","SGC2"
"linear_scaffolded","4",1,"describe-how","end","axis","linear","2","mike","experiment","GP70L",366914,6,9157,9,2,"1","LM-First","text:how","2","SGC2"
"linear_scaffolded","AEGHIL",0,"describe-how","duration","axis","linear","2","mike","experiment","GP70L",410099,7,41943,42,3,"0","LM-First","text:how","3","SGC2"
"linear_scaffolded","10",0,"describe-how","midpoint","axis","linear","2","mike","experiment","GP70L",442531,8,31183,31,4,"0","LM-First","text:how","4","SGC2"
"linear_scaffolded","7",1,"describe-how","start+overlap","axis","linear","2","mike","experiment","GP70L",463693,9,19918,20,5,"1","LM-First","text:how","5","SGC2"
"linear_testing","G",1,"none","meets","axis","linear","2","mike","experiment","GP70L",500384,10,35444,35,6,"1","LM-First","text:how","6","SGC2"
"linear_testing","FMO",0,"none","before+overlap","axis","linear","2","mike","experiment","GP70L",528633,11,27001,27,7,"0","LM-First","text:how","7","SGC2"
"linear_testing","GO",1,"none","finishes","axis","linear","2","mike","experiment","GP70L",539693,12,9812,10,8,"1","LM-First","text:how","8","SGC2"
"linear_testing","ABCEFJ",0,"none","overlap+overlap","axis","linear","2","mike","experiment","GP70L",568075,13,27134,27,9,"0","LM-First","text:how","9","SGC2"
"linear_testing","9",1,"none","start+duration","axis","linear","2","mike","experiment","GP70L",595963,14,26643,27,10,"1","LM-First","text:how","10","SGC2"
"linear_testing","A",1,"none","during+overlap","axis","linear","2","mike","experiment","GP70L",616406,15,19197,19,11,"1","LM-First","text:how","11","SGC2"
"linear_testing","6",1,"none","starts","axis","linear","2","mike","experiment","GP70L",644241,16,26594,27,12,"1","LM-First","text:how","12","SGC2"
"linear_testing","G",1,"none","starts+finishes","axis","linear","2","mike","experiment","GP70L",663254,17,17758,18,13,"1","LM-First","text:how","13","SGC2"
"linear_testing","FMO",1,"none","during","axis","linear","2","mike","experiment","GP70L",687068,18,22563,23,14,"1","LM-First","text:how","14","SGC2"
"linear_testing","DMNO",1,"none","contain+duration","axis","linear","2","mike","experiment","GP70L",720468,19,32145,32,15,"1","LM-First","text:how","15","SGC2"
"triangular_scaffolded","D",0,"describe-how","start","longmire","triangular","2","mike","experiment","GP70L",840024,21,104671,105,1,"0","LM-First","text:how","1","SGC2"
"triangular_scaffolded","EG",0,"describe-how","end","longmire","triangular","2","mike","experiment","GP70L",857432,22,16062,16,2,"0","LM-First","text:how","2","SGC2"
"triangular_scaffolded","GO",1,"describe-how","duration","longmire","triangular","2","mike","experiment","GP70L",872887,23,14200,14,3,"1","LM-First","text:how","3","SGC2"
"triangular_scaffolded","1",1,"describe-how","midpoint","longmire","triangular","2","mike","experiment","GP70L",889495,24,15355,15,4,"1","LM-First","text:how","4","SGC2"
"triangular_scaffolded","A",1,"describe-how","start+overlap","longmire","triangular","2","mike","experiment","GP70L",907481,25,16734,17,5,"1","LM-First","text:how","5","SGC2"
"triangular_testing","O",1,"none","meets","longmire","triangular","2","mike","experiment","GP70L",921521,26,12789,13,6,"1","LM-First","text:how","6","SGC2"
"triangular_testing","KL",1,"none","during+overlap","longmire","triangular","2","mike","experiment","GP70L",977725,27,54942,55,7,"1","LM-First","text:how","7","SGC2"
"triangular_testing","45",1,"none","finishes","longmire","triangular","2","mike","experiment","GP70L",1000917,28,21941,22,8,"1","LM-First","text:how","8","SGC2"
"triangular_testing","BCDFGHIJLO",0,"none","during","longmire","triangular","2","mike","experiment","GP70L",1149850,29,147687,148,9,"0","LM-First","text:how","9","SGC2"
"triangular_testing","ABCDFI",1,"none","before+overlap","longmire","triangular","2","mike","experiment","GP70L",1180333,30,29126,29,10,"1","LM-First","text:how","10","SGC2"
"triangular_testing","C",1,"none","starts+finishes","longmire","triangular","2","mike","experiment","GP70L",1197373,31,15790,16,11,"1","LM-First","text:how","11","SGC2"
"triangular_testing","68",1,"none","starts","longmire","triangular","2","mike","experiment","GP70L",1217654,32,19035,19,12,"1","LM-First","text:how","12","SGC2"
"triangular_testing","AMN",1,"none","overlap+overlap","longmire","triangular","2","mike","experiment","GP70L",1242935,33,24037,24,13,"1","LM-First","text:how","13","SGC2"
"triangular_testing","BF",0,"none","contain+duration","longmire","triangular","2","mike","experiment","GP70L",1287478,34,43282,43,14,"0","LM-First","text:how","14","SGC2"
"triangular_testing","ABDF",1,"none","start+duration","longmire","triangular","2","mike","experiment","GP70L",1313548,35,24824,25,15,"1","LM-First","text:how","15","SGC2"
"drawingTest","C1",1,"none","duration","jones","none","2","mike","experiment","GP70L",1821353,38,206156,206,NA,"1","LM-First","text:how",NA,"SGC2"
"drawingTest","Chris3-4pm",1,"none","overlap","jones","none","2","mike","experiment","GP70L",1898605,39,75912,76,NA,"1","LM-First","text:how",NA,"SGC2"
"triangular_scaffolded","HO",1,"show-interactive","start","axis","triangular","4","mike","reverse","VVNY9",335927,5,24548,25,1,"1","TM-First","img:ixv","1","SGC2"
"triangular_scaffolded","4",1,"show-interactive","end","axis","triangular","4","mike","reverse","VVNY9",345523,6,8339,8,2,"1","TM-First","img:ixv","2","SGC2"
"triangular_scaffolded","CFK",0,"show-interactive","duration","axis","triangular","4","mike","reverse","VVNY9",362521,7,15706,16,3,"0","TM-First","img:ixv","3","SGC2"
"triangular_scaffolded","8",1,"show-interactive","midpoint","axis","triangular","4","mike","reverse","VVNY9",391430,8,27664,28,4,"1","TM-First","img:ixv","4","SGC2"
"triangular_scaffolded","7",1,"show-interactive","start+overlap","axis","triangular","4","mike","reverse","VVNY9",427161,9,34485,34,5,"1","TM-First","img:ixv","5","SGC2"
"triangular_testing","ABCEJ",1,"none","overlap+overlap","axis","triangular","4","mike","reverse","VVNY9",465530,10,37122,37,6,"1","TM-First","img:ixv","6","SGC2"
"triangular_testing","6",1,"none","starts","axis","triangular","4","mike","reverse","VVNY9",491122,11,24345,24,7,"1","TM-First","img:ixv","7","SGC2"
"triangular_testing","A",1,"none","during+overlap","axis","triangular","4","mike","reverse","VVNY9",517115,12,24749,25,8,"1","TM-First","img:ixv","8","SGC2"
"triangular_testing","FMO",1,"none","during","axis","triangular","4","mike","reverse","VVNY9",530836,13,12474,12,9,"1","TM-First","img:ixv","9","SGC2"
"triangular_testing","G",1,"none","starts+finishes","axis","triangular","4","mike","reverse","VVNY9",542888,14,10807,11,10,"1","TM-First","img:ixv","10","SGC2"
"triangular_testing","G",1,"none","meets","axis","triangular","4","mike","reverse","VVNY9",572090,15,27953,28,11,"1","TM-First","img:ixv","11","SGC2"
"triangular_testing","FGMO",1,"none","before+overlap","axis","triangular","4","mike","reverse","VVNY9",604706,16,31359,31,12,"1","TM-First","img:ixv","12","SGC2"
"triangular_testing","9",1,"none","start+duration","axis","triangular","4","mike","reverse","VVNY9",621057,17,15096,15,13,"1","TM-First","img:ixv","13","SGC2"
"triangular_testing","DMNO",1,"none","contain+duration","axis","triangular","4","mike","reverse","VVNY9",648549,18,26242,26,14,"1","TM-First","img:ixv","14","SGC2"
"triangular_testing","GO",1,"none","finishes","axis","triangular","4","mike","reverse","VVNY9",661407,19,11600,12,15,"1","TM-First","img:ixv","15","SGC2"
"linear_scaffolded","CDL",1,"show-interactive","start","longmire","linear","4","mike","reverse","VVNY9",697469,21,13752,14,1,"1","TM-First","img:ixv","1","SGC2"
"linear_scaffolded","HJKLO",0,"show-interactive","end","longmire","linear","4","mike","reverse","VVNY9",718717,22,20005,20,2,"0","TM-First","img:ixv","2","SGC2"
"linear_scaffolded","GO",1,"show-interactive","duration","longmire","linear","4","mike","reverse","VVNY9",740578,23,20612,21,3,"1","TM-First","img:ixv","3","SGC2"
"linear_scaffolded","1",1,"show-interactive","midpoint","longmire","linear","4","mike","reverse","VVNY9",752551,24,10724,11,4,"1","TM-First","img:ixv","4","SGC2"
"linear_scaffolded","A",1,"show-interactive","start+overlap","longmire","linear","4","mike","reverse","VVNY9",767126,25,13332,13,5,"1","TM-First","img:ixv","5","SGC2"
"linear_testing","45",1,"none","finishes","longmire","linear","4","mike","reverse","VVNY9",809577,26,41206,41,6,"1","TM-First","img:ixv","6","SGC2"
"linear_testing","68",1,"none","starts","longmire","linear","4","mike","reverse","VVNY9",834401,27,23561,24,7,"1","TM-First","img:ixv","7","SGC2"
"linear_testing",NA,0,"none","contain+duration","longmire","linear","4","mike","reverse","VVNY9",909288,28,73640,74,8,"0","TM-First","img:ixv","8","SGC2"
"linear_testing","AMN",1,"none","overlap+overlap","longmire","linear","4","mike","reverse","VVNY9",942842,29,32203,32,9,"1","TM-First","img:ixv","9","SGC2"
"linear_testing","C",1,"none","starts+finishes","longmire","linear","4","mike","reverse","VVNY9",958790,30,14637,15,10,"1","TM-First","img:ixv","10","SGC2"
"linear_testing","ABDF",1,"none","start+duration","longmire","linear","4","mike","reverse","VVNY9",985299,31,25252,25,11,"1","TM-First","img:ixv","11","SGC2"
"linear_testing","ABCDFI",1,"none","before+overlap","longmire","linear","4","mike","reverse","VVNY9",1025724,32,39173,39,12,"1","TM-First","img:ixv","12","SGC2"
"linear_testing","KL",1,"none","during+overlap","longmire","linear","4","mike","reverse","VVNY9",1057916,33,30940,31,13,"1","TM-First","img:ixv","13","SGC2"
"linear_testing","BCDFGHIJLO",0,"none","during","longmire","linear","4","mike","reverse","VVNY9",1179672,34,120498,120,14,"0","TM-First","img:ixv","14","SGC2"
"linear_testing","O",1,"none","meets","longmire","linear","4","mike","reverse","VVNY9",1208009,35,26982,27,15,"1","TM-First","img:ixv","15","SGC2"
"drawingTest","C1",1,"none","duration","jones","none","4","mike","reverse","VVNY9",1893323,38,55783,56,NA,"1","TM-First","img:ixv",NA,"SGC2"
"drawingTest","Chris3-4pm",1,"none","overlap","jones","none","4","mike","reverse","VVNY9",1911183,39,16604,17,NA,"1","TM-First","img:ixv",NA,"SGC2"
"triangular_scaffolded","CDL",1,"none","start","longmire","triangular","0","mike","reverse","7L5E7",368437,5,67655,68,1,"1","TM-First","control","1","SGC2"
"triangular_scaffolded","HJKLMNO",1,"none","end","longmire","triangular","0","mike","reverse","7L5E7",430650,6,60878,61,2,"1","TM-First","control","2","SGC2"
"triangular_scaffolded","GO",1,"none","duration","longmire","triangular","0","mike","reverse","7L5E7",445090,7,13112,13,3,"1","TM-First","control","3","SGC2"
"triangular_scaffolded","1",1,"none","midpoint","longmire","triangular","0","mike","reverse","7L5E7",469979,8,23640,24,4,"1","TM-First","control","4","SGC2"
"triangular_scaffolded","A",1,"none","start+overlap","longmire","triangular","0","mike","reverse","7L5E7",516750,9,45512,46,5,"1","TM-First","control","5","SGC2"
"triangular_testing","ABDF",1,"none","start+duration","longmire","triangular","0","mike","reverse","7L5E7",557873,10,39872,40,6,"1","TM-First","control","6","SGC2"
"triangular_testing","68",1,"none","starts","longmire","triangular","0","mike","reverse","7L5E7",588364,11,29244,29,7,"1","TM-First","control","7","SGC2"
"triangular_testing","AMN",1,"none","overlap+overlap","longmire","triangular","0","mike","reverse","7L5E7",623562,12,33954,34,8,"1","TM-First","control","8","SGC2"
"triangular_testing","O",1,"none","meets","longmire","triangular","0","mike","reverse","7L5E7",649187,13,24374,24,9,"1","TM-First","control","9","SGC2"
"triangular_testing","ABCDFI",1,"none","before+overlap","longmire","triangular","0","mike","reverse","7L5E7",711070,14,60636,61,10,"1","TM-First","control","10","SGC2"
"triangular_testing","GO",1,"none","contain+duration","longmire","triangular","0","mike","reverse","7L5E7",733360,15,20887,21,11,"1","TM-First","control","11","SGC2"
"triangular_testing","KL",1,"none","during+overlap","longmire","triangular","0","mike","reverse","7L5E7",771928,16,37317,37,12,"1","TM-First","control","12","SGC2"
"triangular_testing","BCDFGHIJKLO",0,"none","during","longmire","triangular","0","mike","reverse","7L5E7",854036,17,80831,81,13,"0","TM-First","control","13","SGC2"
"triangular_testing","C",1,"none","starts+finishes","longmire","triangular","0","mike","reverse","7L5E7",889237,18,33793,34,14,"1","TM-First","control","14","SGC2"
"triangular_testing","45",1,"none","finishes","longmire","triangular","0","mike","reverse","7L5E7",916056,19,25568,26,15,"1","TM-First","control","15","SGC2"
"linear_scaffolded","HO",1,"none","start","axis","linear","0","mike","reverse","7L5E7",957120,21,23506,24,1,"1","TM-First","control","1","SGC2"
"linear_scaffolded","4",1,"none","end","axis","linear","0","mike","reverse","7L5E7",967386,22,9015,9,2,"1","TM-First","control","2","SGC2"
"linear_scaffolded","ACEFGHIKL",1,"none","duration","axis","linear","0","mike","reverse","7L5E7",1009554,23,40918,41,3,"1","TM-First","control","3","SGC2"
"linear_scaffolded","8",1,"none","midpoint","axis","linear","0","mike","reverse","7L5E7",1029500,24,18696,19,4,"1","TM-First","control","4","SGC2"
"linear_scaffolded","7",1,"none","start+overlap","axis","linear","0","mike","reverse","7L5E7",1057018,25,26266,26,5,"1","TM-First","control","5","SGC2"
"linear_testing","ABCEFJ",0,"none","overlap+overlap","axis","linear","0","mike","reverse","7L5E7",1089096,26,30833,31,6,"0","TM-First","control","6","SGC2"
"linear_testing","G",1,"none","starts+finishes","axis","linear","0","mike","reverse","7L5E7",1100623,27,10275,10,7,"1","TM-First","control","7","SGC2"
"linear_testing","FGMO",0,"none","meets","axis","linear","0","mike","reverse","7L5E7",1145619,28,43748,44,8,"0","TM-First","control","8","SGC2"
"linear_testing","A",1,"none","during+overlap","axis","linear","0","mike","reverse","7L5E7",1178277,29,31408,31,9,"1","TM-First","control","9","SGC2"
"linear_testing","FGMO",1,"none","before+overlap","axis","linear","0","mike","reverse","7L5E7",1215912,30,36388,36,10,"1","TM-First","control","10","SGC2"
"linear_testing","6",1,"none","starts","axis","linear","0","mike","reverse","7L5E7",1252701,31,35547,36,11,"1","TM-First","control","11","SGC2"
"linear_testing","GO",1,"none","finishes","axis","linear","0","mike","reverse","7L5E7",1269411,32,15465,15,12,"1","TM-First","control","12","SGC2"
"linear_testing","DNO",0,"none","contain+duration","axis","linear","0","mike","reverse","7L5E7",1302480,33,31813,32,13,"0","TM-First","control","13","SGC2"
"linear_testing","FMO",1,"none","during","axis","linear","0","mike","reverse","7L5E7",1334660,34,30933,31,14,"1","TM-First","control","14","SGC2"
"linear_testing","9",1,"none","start+duration","axis","linear","0","mike","reverse","7L5E7",1359259,35,23352,23,15,"1","TM-First","control","15","SGC2"
"drawingTest","C1",1,"none","duration","jones","none","0","mike","reverse","7L5E7",1894213,38,72341,72,NA,"1","TM-First","control",NA,"SGC2"
"drawingTest","Chris3-4pm",1,"none","overlap","jones","none","0","mike","reverse","7L5E7",1926221,39,30666,31,NA,"1","TM-First","control",NA,"SGC2"
"triangular_scaffolded","CDL",1,"show-static","start","longmire","triangular","3","mike","reverse","GQN1V",321599,5,55144,55,1,"1","TM-First","img:static","1","SGC2"
"triangular_scaffolded","HJKLMNO",1,"show-static","end","longmire","triangular","3","mike","reverse","GQN1V",468869,6,146016,146,2,"1","TM-First","img:static","2","SGC2"
"triangular_scaffolded","GO",1,"show-static","duration","longmire","triangular","3","mike","reverse","GQN1V",478829,7,8559,9,3,"1","TM-First","img:static","3","SGC2"
"triangular_scaffolded","1",1,"show-static","midpoint","longmire","triangular","3","mike","reverse","GQN1V",518502,8,38417,38,4,"1","TM-First","img:static","4","SGC2"
"triangular_scaffolded","A",1,"show-static","start+overlap","longmire","triangular","3","mike","reverse","GQN1V",544854,9,25104,25,5,"1","TM-First","img:static","5","SGC2"
"triangular_testing","68",1,"none","starts","longmire","triangular","3","mike","reverse","GQN1V",618311,10,72209,72,6,"1","TM-First","img:static","6","SGC2"
"triangular_testing","L",0,"none","during+overlap","longmire","triangular","3","mike","reverse","GQN1V",688996,11,69291,69,7,"0","TM-First","img:static","7","SGC2"
"triangular_testing","45",1,"none","finishes","longmire","triangular","3","mike","reverse","GQN1V",732161,12,41830,42,8,"1","TM-First","img:static","8","SGC2"
"triangular_testing","GO",1,"none","contain+duration","longmire","triangular","3","mike","reverse","GQN1V",761666,13,28259,28,9,"1","TM-First","img:static","9","SGC2"
"triangular_testing","AMN",1,"none","overlap+overlap","longmire","triangular","3","mike","reverse","GQN1V",801374,14,38449,38,10,"1","TM-First","img:static","10","SGC2"
"triangular_testing","C",1,"none","starts+finishes","longmire","triangular","3","mike","reverse","GQN1V",834493,15,31872,32,11,"1","TM-First","img:static","11","SGC2"
"triangular_testing","ABCDFI",1,"none","before+overlap","longmire","triangular","3","mike","reverse","GQN1V",898383,16,62643,63,12,"1","TM-First","img:static","12","SGC2"
"triangular_testing","BCDG",0,"none","during","longmire","triangular","3","mike","reverse","GQN1V",941997,17,42276,42,13,"0","TM-First","img:static","13","SGC2"
"triangular_testing","O",1,"none","meets","longmire","triangular","3","mike","reverse","GQN1V",975109,18,31853,32,14,"1","TM-First","img:static","14","SGC2"
"triangular_testing","ABDF",1,"none","start+duration","longmire","triangular","3","mike","reverse","GQN1V",1015987,19,39614,40,15,"1","TM-First","img:static","15","SGC2"
"linear_scaffolded","HO",1,"show-static","start","axis","linear","3","mike","reverse","GQN1V",1064542,21,31792,32,1,"1","TM-First","img:static","1","SGC2"
"linear_scaffolded","4",1,"show-static","end","axis","linear","3","mike","reverse","GQN1V",1078790,22,12989,13,2,"1","TM-First","img:static","2","SGC2"
"linear_scaffolded","AEFGIKL",0,"show-static","duration","axis","linear","3","mike","reverse","GQN1V",1131570,23,51526,52,3,"0","TM-First","img:static","3","SGC2"
"linear_scaffolded","8",1,"show-static","midpoint","axis","linear","3","mike","reverse","GQN1V",1162553,24,29731,30,4,"1","TM-First","img:static","4","SGC2"
"linear_scaffolded","7",1,"show-static","start+overlap","axis","linear","3","mike","reverse","GQN1V",1191363,25,27558,28,5,"1","TM-First","img:static","5","SGC2"
"linear_testing","G",1,"none","starts+finishes","axis","linear","3","mike","reverse","GQN1V",1207019,26,14381,14,6,"1","TM-First","img:static","6","SGC2"
"linear_testing","FGLMO",0,"none","before+overlap","axis","linear","3","mike","reverse","GQN1V",1273755,27,65482,65,7,"0","TM-First","img:static","7","SGC2"
"linear_testing","GO",1,"none","finishes","axis","linear","3","mike","reverse","GQN1V",1293202,28,18083,18,8,"1","TM-First","img:static","8","SGC2"
"linear_testing","3",0,"none","starts","axis","linear","3","mike","reverse","GQN1V",1315402,29,20948,21,9,"0","TM-First","img:static","9","SGC2"
"linear_testing","ABCEFJ",0,"none","overlap+overlap","axis","linear","3","mike","reverse","GQN1V",1364661,30,48009,48,10,"0","TM-First","img:static","10","SGC2"
"linear_testing","DMNO",1,"none","contain+duration","axis","linear","3","mike","reverse","GQN1V",1402396,31,36472,36,11,"1","TM-First","img:static","11","SGC2"
"linear_testing","9",1,"none","start+duration","axis","linear","3","mike","reverse","GQN1V",1425924,32,22270,22,12,"1","TM-First","img:static","12","SGC2"
"linear_testing","FMO",1,"none","during","axis","linear","3","mike","reverse","GQN1V",1455294,33,28114,28,13,"1","TM-First","img:static","13","SGC2"
"linear_testing","GMO",0,"none","meets","axis","linear","3","mike","reverse","GQN1V",1506389,34,49838,50,14,"0","TM-First","img:static","14","SGC2"
"linear_testing","A",1,"none","during+overlap","axis","linear","3","mike","reverse","GQN1V",1538017,35,30377,30,15,"1","TM-First","img:static","15","SGC2"
"drawingTest","C1",1,"none","duration","jones","none","3","mike","reverse","GQN1V",2024388,38,59655,60,NA,"1","TM-First","img:static",NA,"SGC2"
"drawingTest","Bahar9-12pm",0,"none","overlap","jones","none","3","mike","reverse","GQN1V",2093468,39,67737,68,NA,"0","TM-First","img:static",NA,"SGC2"
"triangular_scaffolded","HO",1,"show-interactive","start","axis","triangular","4","mike","reverse","AHBJE",316184,5,36713,37,1,"1","TM-First","img:ixv","1","SGC2"
"triangular_scaffolded","4",1,"show-interactive","end","axis","triangular","4","mike","reverse","AHBJE",333535,6,16105,16,2,"1","TM-First","img:ixv","2","SGC2"
"triangular_scaffolded","CFK",0,"show-interactive","duration","axis","triangular","4","mike","reverse","AHBJE",350670,7,15880,16,3,"0","TM-First","img:ixv","3","SGC2"
"triangular_scaffolded","8",1,"show-interactive","midpoint","axis","triangular","4","mike","reverse","AHBJE",371369,8,19446,19,4,"1","TM-First","img:ixv","4","SGC2"
"triangular_scaffolded","1",0,"show-interactive","start+overlap","axis","triangular","4","mike","reverse","AHBJE",409024,9,36393,36,5,"0","TM-First","img:ixv","5","SGC2"
"triangular_testing","IK",0,"none","overlap+overlap","axis","triangular","4","mike","reverse","AHBJE",437052,10,26776,27,6,"0","TM-First","img:ixv","6","SGC2"
"triangular_testing","GKN",0,"none","meets","axis","triangular","4","mike","reverse","AHBJE",505029,11,66722,67,7,"0","TM-First","img:ixv","7","SGC2"
"triangular_testing","GO",1,"none","finishes","axis","triangular","4","mike","reverse","AHBJE",518014,12,11647,12,8,"1","TM-First","img:ixv","8","SGC2"
"triangular_testing","DNO",0,"none","contain+duration","axis","triangular","4","mike","reverse","AHBJE",558032,13,38774,39,9,"0","TM-First","img:ixv","9","SGC2"
"triangular_testing","6",1,"none","starts","axis","triangular","4","mike","reverse","AHBJE",583856,14,24576,25,10,"1","TM-First","img:ixv","10","SGC2"
"triangular_testing","A",1,"none","during+overlap","axis","triangular","4","mike","reverse","AHBJE",618896,15,33786,34,11,"1","TM-First","img:ixv","11","SGC2"
"triangular_testing","FGMO",1,"none","before+overlap","axis","triangular","4","mike","reverse","AHBJE",650200,16,30051,30,12,"1","TM-First","img:ixv","12","SGC2"
"triangular_testing","G",1,"none","starts+finishes","axis","triangular","4","mike","reverse","AHBJE",662358,17,10899,11,13,"1","TM-First","img:ixv","13","SGC2"
"triangular_testing","9",1,"none","start+duration","axis","triangular","4","mike","reverse","AHBJE",681102,18,17498,17,14,"1","TM-First","img:ixv","14","SGC2"
"triangular_testing","GM",0,"none","during","axis","triangular","4","mike","reverse","AHBJE",695911,19,13559,14,15,"0","TM-First","img:ixv","15","SGC2"
"linear_scaffolded","CDL",1,"show-interactive","start","longmire","linear","4","mike","reverse","AHBJE",726122,21,17137,17,1,"1","TM-First","img:ixv","1","SGC2"
"linear_scaffolded","KLMN",0,"show-interactive","end","longmire","linear","4","mike","reverse","AHBJE",745887,22,18463,18,2,"0","TM-First","img:ixv","2","SGC2"
"linear_scaffolded","BH",0,"show-interactive","duration","longmire","linear","4","mike","reverse","AHBJE",766888,23,19758,20,3,"0","TM-First","img:ixv","3","SGC2"
"linear_scaffolded","1",1,"show-interactive","midpoint","longmire","linear","4","mike","reverse","AHBJE",788043,24,19909,20,4,"1","TM-First","img:ixv","4","SGC2"
"linear_scaffolded","A",1,"show-interactive","start+overlap","longmire","linear","4","mike","reverse","AHBJE",803043,25,13756,14,5,"1","TM-First","img:ixv","5","SGC2"
"linear_testing","68",1,"none","starts","longmire","linear","4","mike","reverse","AHBJE",832021,26,27730,28,6,"1","TM-First","img:ixv","6","SGC2"
"linear_testing","BCDFGHJLO",0,"none","during","longmire","linear","4","mike","reverse","AHBJE",924496,27,91228,91,7,"0","TM-First","img:ixv","7","SGC2"
"linear_testing","O",1,"none","meets","longmire","linear","4","mike","reverse","AHBJE",942935,28,16979,17,8,"1","TM-First","img:ixv","8","SGC2"
"linear_testing","A",0,"none","overlap+overlap","longmire","linear","4","mike","reverse","AHBJE",974874,29,30682,31,9,"0","TM-First","img:ixv","9","SGC2"
"linear_testing","ABCDFI",1,"none","before+overlap","longmire","linear","4","mike","reverse","AHBJE",1006570,30,30444,30,10,"1","TM-First","img:ixv","10","SGC2"
"linear_testing","C",1,"none","starts+finishes","longmire","linear","4","mike","reverse","AHBJE",1025022,31,17199,17,11,"1","TM-First","img:ixv","11","SGC2"
"linear_testing","4",0,"none","finishes","longmire","linear","4","mike","reverse","AHBJE",1046141,32,19856,20,12,"0","TM-First","img:ixv","12","SGC2"
"linear_testing","ABDF",1,"none","start+duration","longmire","linear","4","mike","reverse","AHBJE",1086770,33,39375,39,13,"1","TM-First","img:ixv","13","SGC2"
"linear_testing","GO",1,"none","contain+duration","longmire","linear","4","mike","reverse","AHBJE",1142604,34,54575,55,14,"1","TM-First","img:ixv","14","SGC2"
"linear_testing","KL",1,"none","during+overlap","longmire","linear","4","mike","reverse","AHBJE",1186325,35,42466,42,15,"1","TM-First","img:ixv","15","SGC2"
"drawingTest",NA,0,"none","duration","jones","none","4","mike","reverse","AHBJE",2014495,38,24893,25,NA,"0","TM-First","img:ixv",NA,"SGC2"
"drawingTest","Chris3-4pm",1,"none","overlap","jones","none","4","mike","reverse","AHBJE",2064027,39,48268,48,NA,"1","TM-First","img:ixv",NA,"SGC2"
"triangular_scaffolded","G",0,"show-interactive","start","axis","triangular","4","mike","reverse","18MDU",301491,5,22053,22,1,"0","TM-First","img:ixv","1","SGC2"
"triangular_scaffolded","6",0,"show-interactive","end","axis","triangular","4","mike","reverse","18MDU",344636,6,41890,42,2,"0","TM-First","img:ixv","2","SGC2"
"triangular_scaffolded","ACEFGHIKL",1,"show-interactive","duration","axis","triangular","4","mike","reverse","18MDU",405960,7,60073,60,3,"1","TM-First","img:ixv","3","SGC2"
"triangular_scaffolded","8",1,"show-interactive","midpoint","axis","triangular","4","mike","reverse","18MDU",435133,8,27837,28,4,"1","TM-First","img:ixv","4","SGC2"
"triangular_scaffolded","7",1,"show-interactive","start+overlap","axis","triangular","4","mike","reverse","18MDU",479305,9,42907,43,5,"1","TM-First","img:ixv","5","SGC2"
"triangular_testing","FGHLMO",0,"none","before+overlap","axis","triangular","4","mike","reverse","18MDU",543180,10,62622,63,6,"0","TM-First","img:ixv","6","SGC2"
"triangular_testing","A",1,"none","during+overlap","axis","triangular","4","mike","reverse","18MDU",578564,11,34053,34,7,"1","TM-First","img:ixv","7","SGC2"
"triangular_testing","DMNO",1,"none","contain+duration","axis","triangular","4","mike","reverse","18MDU",621428,12,41615,42,8,"1","TM-First","img:ixv","8","SGC2"
"triangular_testing","GO",1,"none","finishes","axis","triangular","4","mike","reverse","18MDU",641661,13,18982,19,9,"1","TM-First","img:ixv","9","SGC2"
"triangular_testing","FMO",1,"none","during","axis","triangular","4","mike","reverse","18MDU",664242,14,21326,21,10,"1","TM-First","img:ixv","10","SGC2"
"triangular_testing","6",1,"none","starts","axis","triangular","4","mike","reverse","18MDU",706413,15,40924,41,11,"1","TM-First","img:ixv","11","SGC2"
"triangular_testing","9",1,"none","start+duration","axis","triangular","4","mike","reverse","18MDU",725915,16,18238,18,12,"1","TM-First","img:ixv","12","SGC2"
"triangular_testing","FGMO",0,"none","meets","axis","triangular","4","mike","reverse","18MDU",801807,17,74640,75,13,"0","TM-First","img:ixv","13","SGC2"
"triangular_testing","G",1,"none","starts+finishes","axis","triangular","4","mike","reverse","18MDU",814527,18,11286,11,14,"1","TM-First","img:ixv","14","SGC2"
"triangular_testing","ACEJ",0,"none","overlap+overlap","axis","triangular","4","mike","reverse","18MDU",857937,19,42164,42,15,"0","TM-First","img:ixv","15","SGC2"
"linear_scaffolded","CDL",1,"show-interactive","start","longmire","linear","4","mike","reverse","18MDU",904675,21,28936,29,1,"1","TM-First","img:ixv","1","SGC2"
"linear_scaffolded","EG",0,"show-interactive","end","longmire","linear","4","mike","reverse","18MDU",919019,22,13096,13,2,"0","TM-First","img:ixv","2","SGC2"
"linear_scaffolded","GO",1,"show-interactive","duration","longmire","linear","4","mike","reverse","18MDU",947471,23,27206,27,3,"1","TM-First","img:ixv","3","SGC2"
"linear_scaffolded","1",1,"show-interactive","midpoint","longmire","linear","4","mike","reverse","18MDU",967791,24,19067,19,4,"1","TM-First","img:ixv","4","SGC2"
"linear_scaffolded","A",1,"show-interactive","start+overlap","longmire","linear","4","mike","reverse","18MDU",992423,25,23377,23,5,"1","TM-First","img:ixv","5","SGC2"
"linear_testing","AMN",1,"none","overlap+overlap","longmire","linear","4","mike","reverse","18MDU",1031593,26,37917,38,6,"1","TM-First","img:ixv","6","SGC2"
"linear_testing","ABDF",1,"none","start+duration","longmire","linear","4","mike","reverse","18MDU",1076426,27,43581,44,7,"1","TM-First","img:ixv","7","SGC2"
"linear_testing","KL",1,"none","during+overlap","longmire","linear","4","mike","reverse","18MDU",1124013,28,46315,46,8,"1","TM-First","img:ixv","8","SGC2"
"linear_testing","C",1,"none","starts+finishes","longmire","linear","4","mike","reverse","18MDU",1160678,29,35411,35,9,"1","TM-First","img:ixv","9","SGC2"
"linear_testing","O",1,"none","meets","longmire","linear","4","mike","reverse","18MDU",1187041,30,25105,25,10,"1","TM-First","img:ixv","10","SGC2"
"linear_testing","BCDG",0,"none","during","longmire","linear","4","mike","reverse","18MDU",1283547,31,95251,95,11,"0","TM-First","img:ixv","11","SGC2"
"linear_testing","68",1,"none","starts","longmire","linear","4","mike","reverse","18MDU",1334814,32,49841,50,12,"1","TM-First","img:ixv","12","SGC2"
"linear_testing","GO",1,"none","contain+duration","longmire","linear","4","mike","reverse","18MDU",1359046,33,22981,23,13,"1","TM-First","img:ixv","13","SGC2"
"linear_testing","ABCDFI",1,"none","before+overlap","longmire","linear","4","mike","reverse","18MDU",1410992,34,50691,51,14,"1","TM-First","img:ixv","14","SGC2"
"linear_testing","45",1,"none","finishes","longmire","linear","4","mike","reverse","18MDU",1453460,35,41216,41,15,"1","TM-First","img:ixv","15","SGC2"
"drawingTest",NA,0,"none","duration","jones","none","4","mike","reverse","18MDU",2023562,38,60572,61,NA,"0","TM-First","img:ixv",NA,"SGC2"
"drawingTest","Chris3-4pm",1,"none","overlap","jones","none","4","mike","reverse","18MDU",2109383,39,84485,84,NA,"1","TM-First","img:ixv",NA,"SGC2"
"triangular_scaffolded",NA,0,"describe-what","start","longmire","triangular","1","mike","reverse","NTST8",333827,5,46614,47,1,"0","TM-First","text:what","1","SGC2"
"triangular_scaffolded","H",0,"describe-what","end","longmire","triangular","1","mike","reverse","NTST8",392601,6,57472,57,2,"0","TM-First","text:what","2","SGC2"
"triangular_scaffolded","GO",1,"describe-what","duration","longmire","triangular","1","mike","reverse","NTST8",403105,7,9258,9,3,"1","TM-First","text:what","3","SGC2"
"triangular_scaffolded","5",0,"describe-what","midpoint","longmire","triangular","1","mike","reverse","NTST8",430114,8,25764,26,4,"0","TM-First","text:what","4","SGC2"
"triangular_scaffolded","A",1,"describe-what","start+overlap","longmire","triangular","1","mike","reverse","NTST8",488019,9,56661,57,5,"1","TM-First","text:what","5","SGC2"
"triangular_testing","6",0,"none","finishes","longmire","triangular","1","mike","reverse","NTST8",553768,10,64499,64,6,"0","TM-First","text:what","6","SGC2"
"triangular_testing","ABDF",1,"none","start+duration","longmire","triangular","1","mike","reverse","NTST8",583600,11,28479,28,7,"1","TM-First","text:what","7","SGC2"
"triangular_testing","1",0,"none","starts","longmire","triangular","1","mike","reverse","NTST8",702361,12,117519,118,8,"0","TM-First","text:what","8","SGC2"
"triangular_testing","ABDF",0,"none","before+overlap","longmire","triangular","1","mike","reverse","NTST8",756261,13,52399,52,9,"0","TM-First","text:what","9","SGC2"
"triangular_testing","AMN",1,"none","overlap+overlap","longmire","triangular","1","mike","reverse","NTST8",851545,14,94040,94,10,"1","TM-First","text:what","10","SGC2"
"triangular_testing","C",1,"none","starts+finishes","longmire","triangular","1","mike","reverse","NTST8",878801,15,25899,26,11,"1","TM-First","text:what","11","SGC2"
"triangular_testing","O",1,"none","meets","longmire","triangular","1","mike","reverse","NTST8",909908,16,29855,30,12,"1","TM-First","text:what","12","SGC2"
"triangular_testing","IK",0,"none","during+overlap","longmire","triangular","1","mike","reverse","NTST8",965431,17,54275,54,13,"0","TM-First","text:what","13","SGC2"
"triangular_testing","BCDFG",1,"none","during","longmire","triangular","1","mike","reverse","NTST8",1013805,18,47117,47,14,"1","TM-First","text:what","14","SGC2"
"triangular_testing","GO",1,"none","contain+duration","longmire","triangular","1","mike","reverse","NTST8",1034042,19,18989,19,15,"1","TM-First","text:what","15","SGC2"
"linear_scaffolded","HO",1,"describe-what","start","axis","linear","1","mike","reverse","NTST8",1077549,21,18717,19,1,"1","TM-First","text:what","1","SGC2"
"linear_scaffolded","4",1,"describe-what","end","axis","linear","1","mike","reverse","NTST8",1089028,22,10229,10,2,"1","TM-First","text:what","2","SGC2"
"linear_scaffolded","ACEFGHIKL",1,"describe-what","duration","axis","linear","1","mike","reverse","NTST8",1132663,23,42390,42,3,"1","TM-First","text:what","3","SGC2"
"linear_scaffolded","8",1,"describe-what","midpoint","axis","linear","1","mike","reverse","NTST8",1177038,24,43128,43,4,"1","TM-First","text:what","4","SGC2"
"linear_scaffolded","7",1,"describe-what","start+overlap","axis","linear","1","mike","reverse","NTST8",1205175,25,26887,27,5,"1","TM-First","text:what","5","SGC2"
"linear_testing","A",1,"none","during+overlap","axis","linear","1","mike","reverse","NTST8",1242416,26,35985,36,6,"1","TM-First","text:what","6","SGC2"
"linear_testing","GO",1,"none","finishes","axis","linear","1","mike","reverse","NTST8",1255118,27,11402,11,7,"1","TM-First","text:what","7","SGC2"
"linear_testing","9",1,"none","start+duration","axis","linear","1","mike","reverse","NTST8",1273411,28,17041,17,8,"1","TM-First","text:what","8","SGC2"
"linear_testing","DMNO",1,"none","contain+duration","axis","linear","1","mike","reverse","NTST8",1314636,29,39971,40,9,"1","TM-First","text:what","9","SGC2"
"linear_testing","FMO",1,"none","during","axis","linear","1","mike","reverse","NTST8",1343853,30,27938,28,10,"1","TM-First","text:what","10","SGC2"
"linear_testing","3",0,"none","starts","axis","linear","1","mike","reverse","NTST8",1370777,31,25671,26,11,"0","TM-First","text:what","11","SGC2"
"linear_testing","ABCJ",0,"none","overlap+overlap","axis","linear","1","mike","reverse","NTST8",1408129,32,36094,36,12,"0","TM-First","text:what","12","SGC2"
"linear_testing","FGHLMO",0,"none","before+overlap","axis","linear","1","mike","reverse","NTST8",1493318,33,83938,84,13,"0","TM-First","text:what","13","SGC2"
"linear_testing","G",1,"none","meets","axis","linear","1","mike","reverse","NTST8",1533765,34,39101,39,14,"1","TM-First","text:what","14","SGC2"
"linear_testing","G",1,"none","starts+finishes","axis","linear","1","mike","reverse","NTST8",1565059,35,30045,30,15,"1","TM-First","text:what","15","SGC2"
"drawingTest","I4J4",0,"none","duration","jones","none","1","mike","reverse","NTST8",2060429,38,76410,76,NA,"0","TM-First","text:what",NA,"SGC2"
"drawingTest","Chris1-3pm",0,"none","overlap","jones","none","1","mike","reverse","NTST8",2161270,39,99451,99,NA,"0","TM-First","text:what",NA,"SGC2"
"triangular_scaffolded","CDL",1,"none","start","longmire","triangular","0","mike","reverse","G7PG5",378446,5,88414,88,1,"1","TM-First","control","1","SGC2"
"triangular_scaffolded","HJKLMNO",1,"none","end","longmire","triangular","0","mike","reverse","G7PG5",439244,6,59405,59,2,"1","TM-First","control","2","SGC2"
"triangular_scaffolded","GO",1,"none","duration","longmire","triangular","0","mike","reverse","G7PG5",503406,7,62830,63,3,"1","TM-First","control","3","SGC2"
"triangular_scaffolded","1",1,"none","midpoint","longmire","triangular","0","mike","reverse","G7PG5",537904,8,33150,33,4,"1","TM-First","control","4","SGC2"
"triangular_scaffolded","A",1,"none","start+overlap","longmire","triangular","0","mike","reverse","G7PG5",556504,9,17352,17,5,"1","TM-First","control","5","SGC2"
"triangular_testing","AMN",1,"none","overlap+overlap","longmire","triangular","0","mike","reverse","G7PG5",628149,10,70396,70,6,"1","TM-First","control","6","SGC2"
"triangular_testing","C",1,"none","starts+finishes","longmire","triangular","0","mike","reverse","G7PG5",657198,11,27714,28,7,"1","TM-First","control","7","SGC2"
"triangular_testing","68",1,"none","starts","longmire","triangular","0","mike","reverse","G7PG5",703118,12,44675,45,8,"1","TM-First","control","8","SGC2"
"triangular_testing","ABDF",1,"none","start+duration","longmire","triangular","0","mike","reverse","G7PG5",744216,13,39847,40,9,"1","TM-First","control","9","SGC2"
"triangular_testing","BF",0,"none","during+overlap","longmire","triangular","0","mike","reverse","G7PG5",802734,14,57267,57,10,"0","TM-First","control","10","SGC2"
"triangular_testing","45",1,"none","finishes","longmire","triangular","0","mike","reverse","G7PG5",848677,15,44690,45,11,"1","TM-First","control","11","SGC2"
"triangular_testing","BG",0,"none","during","longmire","triangular","0","mike","reverse","G7PG5",878582,16,28644,29,12,"0","TM-First","control","12","SGC2"
"triangular_testing","J",0,"none","contain+duration","longmire","triangular","0","mike","reverse","G7PG5",926488,17,46648,47,13,"0","TM-First","control","13","SGC2"
"triangular_testing","O",1,"none","meets","longmire","triangular","0","mike","reverse","G7PG5",950192,18,22443,22,14,"1","TM-First","control","14","SGC2"
"triangular_testing","ABCDFI",1,"none","before+overlap","longmire","triangular","0","mike","reverse","G7PG5",1043656,19,92211,92,15,"1","TM-First","control","15","SGC2"
"linear_scaffolded","HO",1,"none","start","axis","linear","0","mike","reverse","G7PG5",1098793,21,21729,22,1,"1","TM-First","control","1","SGC2"
"linear_scaffolded","4",1,"none","end","axis","linear","0","mike","reverse","G7PG5",1111282,22,11242,11,2,"1","TM-First","control","2","SGC2"
"linear_scaffolded","AEFGHIKL",0,"none","duration","axis","linear","0","mike","reverse","G7PG5",1154014,23,41483,41,3,"0","TM-First","control","3","SGC2"
"linear_scaffolded","8",1,"none","midpoint","axis","linear","0","mike","reverse","G7PG5",1183994,24,28734,29,4,"1","TM-First","control","4","SGC2"
"linear_scaffolded","1",0,"none","start+overlap","axis","linear","0","mike","reverse","G7PG5",1199692,25,14328,14,5,"0","TM-First","control","5","SGC2"
"linear_testing","5",0,"none","starts","axis","linear","0","mike","reverse","G7PG5",1247046,26,46108,46,6,"0","TM-First","control","6","SGC2"
"linear_testing","A",0,"none","during","axis","linear","0","mike","reverse","G7PG5",1270456,27,22159,22,7,"0","TM-First","control","7","SGC2"
"linear_testing","ABCEJ",1,"none","overlap+overlap","axis","linear","0","mike","reverse","G7PG5",1341196,28,69494,69,8,"1","TM-First","control","8","SGC2"
"linear_testing","GO",1,"none","finishes","axis","linear","0","mike","reverse","G7PG5",1359566,29,17035,17,9,"1","TM-First","control","9","SGC2"
"linear_testing","DNO",0,"none","contain+duration","axis","linear","0","mike","reverse","G7PG5",1395166,30,34347,34,10,"0","TM-First","control","10","SGC2"
"linear_testing","9",1,"none","start+duration","axis","linear","0","mike","reverse","G7PG5",1439094,31,42683,43,11,"1","TM-First","control","11","SGC2"
"linear_testing",NA,0,"none","during+overlap","axis","linear","0","mike","reverse","G7PG5",1524849,32,84512,85,12,"0","TM-First","control","12","SGC2"
"linear_testing","GMO",0,"none","before+overlap","axis","linear","0","mike","reverse","G7PG5",1592438,33,66255,66,13,"0","TM-First","control","13","SGC2"
"linear_testing","G",1,"none","meets","axis","linear","0","mike","reverse","G7PG5",1639792,34,46017,46,14,"1","TM-First","control","14","SGC2"
"linear_testing","G",1,"none","starts+finishes","axis","linear","0","mike","reverse","G7PG5",1668687,35,27650,28,15,"1","TM-First","control","15","SGC2"
"drawingTest","C1",1,"none","duration","jones","none","0","mike","reverse","G7PG5",2173480,38,122952,123,NA,"1","TM-First","control",NA,"SGC2"
"drawingTest","Chris",0,"none","overlap","jones","none","0","mike","reverse","G7PG5",2212855,39,38057,38,NA,"0","TM-First","control",NA,"SGC2"
"triangular_scaffolded","G",0,"describe-how","start","axis","triangular","2","mike","reverse","DB8P9",350735,5,49745,50,1,"0","TM-First","text:how","1","SGC2"
"triangular_scaffolded","4",1,"describe-how","end","axis","triangular","2","mike","reverse","DB8P9",436593,6,84589,85,2,"1","TM-First","text:how","2","SGC2"
"triangular_scaffolded","AEHIL",0,"describe-how","duration","axis","triangular","2","mike","reverse","DB8P9",489254,7,51327,51,3,"0","TM-First","text:how","3","SGC2"
"triangular_scaffolded","8",1,"describe-how","midpoint","axis","triangular","2","mike","reverse","DB8P9",516479,8,25971,26,4,"1","TM-First","text:how","4","SGC2"
"triangular_scaffolded","7",1,"describe-how","start+overlap","axis","triangular","2","mike","reverse","DB8P9",566041,9,48305,48,5,"1","TM-First","text:how","5","SGC2"
"triangular_testing","G",1,"none","starts+finishes","axis","triangular","2","mike","reverse","DB8P9",586596,10,19309,19,6,"1","TM-First","text:how","6","SGC2"
"triangular_testing","9",1,"none","start+duration","axis","triangular","2","mike","reverse","DB8P9",645170,11,57315,57,7,"1","TM-First","text:how","7","SGC2"
"triangular_testing","GO",1,"none","finishes","axis","triangular","2","mike","reverse","DB8P9",656321,12,9769,10,8,"1","TM-First","text:how","8","SGC2"
"triangular_testing","DMNO",1,"none","contain+duration","axis","triangular","2","mike","reverse","DB8P9",701176,13,43600,44,9,"1","TM-First","text:how","9","SGC2"
"triangular_testing","A",1,"none","during+overlap","axis","triangular","2","mike","reverse","DB8P9",735860,14,33426,33,10,"1","TM-First","text:how","10","SGC2"
"triangular_testing","FMO",1,"none","during","axis","triangular","2","mike","reverse","DB8P9",751323,15,14212,14,11,"1","TM-First","text:how","11","SGC2"
"triangular_testing","MO",0,"none","meets","axis","triangular","2","mike","reverse","DB8P9",792849,16,40279,40,12,"0","TM-First","text:how","12","SGC2"
"triangular_testing","FGMO",1,"none","before+overlap","axis","triangular","2","mike","reverse","DB8P9",832538,17,38443,38,13,"1","TM-First","text:how","13","SGC2"
"triangular_testing","6",1,"none","starts","axis","triangular","2","mike","reverse","DB8P9",851108,18,17312,17,14,"1","TM-First","text:how","14","SGC2"
"triangular_testing","BCEJ",0,"none","overlap+overlap","axis","triangular","2","mike","reverse","DB8P9",883149,19,30777,31,15,"0","TM-First","text:how","15","SGC2"
"linear_scaffolded","CDL",1,"describe-how","start","longmire","linear","2","mike","reverse","DB8P9",934223,21,31827,32,1,"1","TM-First","text:how","1","SGC2"
"linear_scaffolded","HJKLO",0,"describe-how","end","longmire","linear","2","mike","reverse","DB8P9",960487,22,25011,25,2,"0","TM-First","text:how","2","SGC2"
"linear_scaffolded","GO",1,"describe-how","duration","longmire","linear","2","mike","reverse","DB8P9",993369,23,31630,32,3,"1","TM-First","text:how","3","SGC2"
"linear_scaffolded","1",1,"describe-how","midpoint","longmire","linear","2","mike","reverse","DB8P9",1012667,24,18033,18,4,"1","TM-First","text:how","4","SGC2"
"linear_scaffolded","A",1,"describe-how","start+overlap","longmire","linear","2","mike","reverse","DB8P9",1030794,25,16865,17,5,"1","TM-First","text:how","5","SGC2"
"linear_testing","ABCDFI",1,"none","before+overlap","longmire","linear","2","mike","reverse","DB8P9",1068501,26,36454,36,6,"1","TM-First","text:how","6","SGC2"
"linear_testing","68",1,"none","starts","longmire","linear","2","mike","reverse","DB8P9",1118360,27,48607,49,7,"1","TM-First","text:how","7","SGC2"
"linear_testing","KL",1,"none","during+overlap","longmire","linear","2","mike","reverse","DB8P9",1143784,28,24176,24,8,"1","TM-First","text:how","8","SGC2"
"linear_testing","GO",1,"none","contain+duration","longmire","linear","2","mike","reverse","DB8P9",1178647,29,33599,34,9,"1","TM-First","text:how","9","SGC2"
"linear_testing","C",1,"none","starts+finishes","longmire","linear","2","mike","reverse","DB8P9",1193978,30,14080,14,10,"1","TM-First","text:how","10","SGC2"
"linear_testing","O",1,"none","meets","longmire","linear","2","mike","reverse","DB8P9",1224105,31,28875,29,11,"1","TM-First","text:how","11","SGC2"
"linear_testing","BCDEFGHIJKLO",0,"none","during","longmire","linear","2","mike","reverse","DB8P9",1317459,32,92103,92,12,"0","TM-First","text:how","12","SGC2"
"linear_testing","ABDF",1,"none","start+duration","longmire","linear","2","mike","reverse","DB8P9",1349271,33,30446,30,13,"1","TM-First","text:how","13","SGC2"
"linear_testing","AMN",1,"none","overlap+overlap","longmire","linear","2","mike","reverse","DB8P9",1377538,34,27013,27,14,"1","TM-First","text:how","14","SGC2"
"linear_testing","45",1,"none","finishes","longmire","linear","2","mike","reverse","DB8P9",1408972,35,30180,30,15,"1","TM-First","text:how","15","SGC2"
"drawingTest","C1",1,"none","duration","jones","none","2","mike","reverse","DB8P9",2267607,38,38922,39,NA,"1","TM-First","text:how",NA,"SGC2"
"drawingTest","Xiao3-4pm",0,"none","overlap","jones","none","2","mike","reverse","DB8P9",2348980,39,80131,80,NA,"0","TM-First","text:how",NA,"SGC2"
"triangular_scaffolded","HO",1,"describe-how","start","axis","triangular","2","mike","reverse","WN45J",475877,5,55183,55,1,"1","TM-First","text:how","1","SGC2"
"triangular_scaffolded","4",1,"describe-how","end","axis","triangular","2","mike","reverse","WN45J",493235,6,16107,16,2,"1","TM-First","text:how","2","SGC2"
"triangular_scaffolded","ACEFGHIKL",1,"describe-how","duration","axis","triangular","2","mike","reverse","WN45J",539709,7,45223,45,3,"1","TM-First","text:how","3","SGC2"
"triangular_scaffolded","8",1,"describe-how","midpoint","axis","triangular","2","mike","reverse","WN45J",578267,8,37303,37,4,"1","TM-First","text:how","4","SGC2"
"triangular_scaffolded","10",0,"describe-how","start+overlap","axis","triangular","2","mike","reverse","WN45J",640666,9,61150,61,5,"0","TM-First","text:how","5","SGC2"
"triangular_testing","DMNO",1,"none","contain+duration","axis","triangular","2","mike","reverse","WN45J",691973,10,49850,50,6,"1","TM-First","text:how","6","SGC2"
"triangular_testing","6",1,"none","starts","axis","triangular","2","mike","reverse","WN45J",726505,11,33285,33,7,"1","TM-First","text:how","7","SGC2"
"triangular_testing","GO",1,"none","finishes","axis","triangular","2","mike","reverse","WN45J",747958,12,20203,20,8,"1","TM-First","text:how","8","SGC2"
"triangular_testing","FGHLMO",0,"none","before+overlap","axis","triangular","2","mike","reverse","WN45J",823876,13,74668,75,9,"0","TM-First","text:how","9","SGC2"
"triangular_testing","FMO",1,"none","during","axis","triangular","2","mike","reverse","WN45J",845755,14,20462,20,10,"1","TM-First","text:how","10","SGC2"
"triangular_testing","A",1,"none","during+overlap","axis","triangular","2","mike","reverse","WN45J",918368,15,71348,71,11,"1","TM-First","text:how","11","SGC2"
"triangular_testing","G",1,"none","meets","axis","triangular","2","mike","reverse","WN45J",967115,16,47332,47,12,"1","TM-First","text:how","12","SGC2"
"triangular_testing","G",1,"none","starts+finishes","axis","triangular","2","mike","reverse","WN45J",985586,17,17222,17,13,"1","TM-First","text:how","13","SGC2"
"triangular_testing","ABCEJ",1,"none","overlap+overlap","axis","triangular","2","mike","reverse","WN45J",1034230,18,47332,47,14,"1","TM-First","text:how","14","SGC2"
"triangular_testing","9",1,"none","start+duration","axis","triangular","2","mike","reverse","WN45J",1076593,19,41116,41,15,"1","TM-First","text:how","15","SGC2"
"linear_scaffolded","CDL",1,"describe-how","start","longmire","linear","2","mike","reverse","WN45J",1113763,21,25193,25,1,"1","TM-First","text:how","1","SGC2"
"linear_scaffolded","HJKLO",0,"describe-how","end","longmire","linear","2","mike","reverse","WN45J",1145003,22,29992,30,2,"0","TM-First","text:how","2","SGC2"
"linear_scaffolded","GO",1,"describe-how","duration","longmire","linear","2","mike","reverse","WN45J",1165757,23,19507,20,3,"1","TM-First","text:how","3","SGC2"
"linear_scaffolded","1",1,"describe-how","midpoint","longmire","linear","2","mike","reverse","WN45J",1181457,24,14447,14,4,"1","TM-First","text:how","4","SGC2"
"linear_scaffolded","A",1,"describe-how","start+overlap","longmire","linear","2","mike","reverse","WN45J",1203632,25,20929,21,5,"1","TM-First","text:how","5","SGC2"
"linear_testing","45",1,"none","finishes","longmire","linear","2","mike","reverse","WN45J",1257350,26,52468,52,6,"1","TM-First","text:how","6","SGC2"
"linear_testing","ABCDFI",1,"none","before+overlap","longmire","linear","2","mike","reverse","WN45J",1317472,27,58867,59,7,"1","TM-First","text:how","7","SGC2"
"linear_testing","C",1,"none","starts+finishes","longmire","linear","2","mike","reverse","WN45J",1338818,28,19948,20,8,"1","TM-First","text:how","8","SGC2"
"linear_testing","ABDF",1,"none","start+duration","longmire","linear","2","mike","reverse","WN45J",1401121,29,61046,61,9,"1","TM-First","text:how","9","SGC2"
"linear_testing","AMN",1,"none","overlap+overlap","longmire","linear","2","mike","reverse","WN45J",1445734,30,43270,43,10,"1","TM-First","text:how","10","SGC2"
"linear_testing","O",1,"none","meets","longmire","linear","2","mike","reverse","WN45J",1463999,31,17012,17,11,"1","TM-First","text:how","11","SGC2"
"linear_testing","68",1,"none","starts","longmire","linear","2","mike","reverse","WN45J",1500254,32,35000,35,12,"1","TM-First","text:how","12","SGC2"
"linear_testing","BCDFG",1,"none","during","longmire","linear","2","mike","reverse","WN45J",1569543,33,68030,68,13,"1","TM-First","text:how","13","SGC2"
"linear_testing","KL",1,"none","during+overlap","longmire","linear","2","mike","reverse","WN45J",1616253,34,45372,45,14,"1","TM-First","text:how","14","SGC2"
"linear_testing","GO",1,"none","contain+duration","longmire","linear","2","mike","reverse","WN45J",1645112,35,27601,28,15,"1","TM-First","text:how","15","SGC2"
"drawingTest","C1",1,"none","duration","jones","none","2","mike","reverse","WN45J",2489364,38,51527,52,NA,"1","TM-First","text:how",NA,"SGC2"
"drawingTest","Chris3-4pm",1,"none","overlap","jones","none","2","mike","reverse","WN45J",2533923,39,43293,43,NA,"1","TM-First","text:how",NA,"SGC2"
"triangular_scaffolded","K",0,"none","start","longmire","triangular","0","mike","reverse","NNQMR",324515,5,31538,32,1,"0","TM-First","control","1","SGC2"
"triangular_scaffolded","EHIJKLMNO",0,"none","end","longmire","triangular","0","mike","reverse","NNQMR",401517,6,75751,76,2,"0","TM-First","control","2","SGC2"
"triangular_scaffolded","GO",1,"none","duration","longmire","triangular","0","mike","reverse","NNQMR",427968,7,25122,25,3,"1","TM-First","control","3","SGC2"
"triangular_scaffolded","4",0,"none","midpoint","longmire","triangular","0","mike","reverse","NNQMR",463175,8,33964,34,4,"0","TM-First","control","4","SGC2"
"triangular_scaffolded","A",1,"none","start+overlap","longmire","triangular","0","mike","reverse","NNQMR",485233,9,20810,21,5,"1","TM-First","control","5","SGC2"
"triangular_testing","A",0,"none","overlap+overlap","longmire","triangular","0","mike","reverse","NNQMR",560659,10,74179,74,6,"0","TM-First","control","6","SGC2"
"triangular_testing","5",0,"none","finishes","longmire","triangular","0","mike","reverse","NNQMR",602382,11,40378,40,7,"0","TM-First","control","7","SGC2"
"triangular_testing","J",0,"none","starts+finishes","longmire","triangular","0","mike","reverse","NNQMR",690401,12,86735,87,8,"0","TM-First","control","8","SGC2"
"triangular_testing","O",1,"none","meets","longmire","triangular","0","mike","reverse","NNQMR",753381,13,61638,62,9,"1","TM-First","control","9","SGC2"
"triangular_testing","MN",0,"none","during+overlap","longmire","triangular","0","mike","reverse","NNQMR",791061,14,36356,36,10,"0","TM-First","control","10","SGC2"
"triangular_testing","GO",1,"none","contain+duration","longmire","triangular","0","mike","reverse","NNQMR",853914,15,61607,62,11,"1","TM-First","control","11","SGC2"
"triangular_testing","ABDF",1,"none","start+duration","longmire","triangular","0","mike","reverse","NNQMR",912896,16,57549,58,12,"1","TM-First","control","12","SGC2"
"triangular_testing","1",0,"none","starts","longmire","triangular","0","mike","reverse","NNQMR",960023,17,45872,46,13,"0","TM-First","control","13","SGC2"
"triangular_testing","ABDF",0,"none","before+overlap","longmire","triangular","0","mike","reverse","NNQMR",1048619,18,87342,87,14,"0","TM-First","control","14","SGC2"
"triangular_testing","HJKLMNO",0,"none","during","longmire","triangular","0","mike","reverse","NNQMR",1102437,19,52416,52,15,"0","TM-First","control","15","SGC2"
"linear_scaffolded","HO",1,"none","start","axis","linear","0","mike","reverse","NNQMR",1148093,21,26336,26,1,"1","TM-First","control","1","SGC2"
"linear_scaffolded","4",1,"none","end","axis","linear","0","mike","reverse","NNQMR",1158910,22,9564,10,2,"1","TM-First","control","2","SGC2"
"linear_scaffolded","ACEFGHIKL",1,"none","duration","axis","linear","0","mike","reverse","NNQMR",1205857,23,45695,46,3,"1","TM-First","control","3","SGC2"
"linear_scaffolded","8",1,"none","midpoint","axis","linear","0","mike","reverse","NNQMR",1235924,24,28794,29,4,"1","TM-First","control","4","SGC2"
"linear_scaffolded","7",1,"none","start+overlap","axis","linear","0","mike","reverse","NNQMR",1269777,25,32603,33,5,"1","TM-First","control","5","SGC2"
"linear_testing","A",0,"none","during","axis","linear","0","mike","reverse","NNQMR",1296493,26,25468,25,6,"0","TM-First","control","6","SGC2"
"linear_testing","FMO",0,"none","meets","axis","linear","0","mike","reverse","NNQMR",1352673,27,54918,55,7,"0","TM-First","control","7","SGC2"
"linear_testing","DHNO",0,"none","contain+duration","axis","linear","0","mike","reverse","NNQMR",1385200,28,31273,31,8,"0","TM-First","control","8","SGC2"
"linear_testing","4",0,"none","starts","axis","linear","0","mike","reverse","NNQMR",1423123,29,36674,37,9,"0","TM-First","control","9","SGC2"
"linear_testing","ABCEFGJ",0,"none","overlap+overlap","axis","linear","0","mike","reverse","NNQMR",1479865,30,55494,55,10,"0","TM-First","control","10","SGC2"
"linear_testing","FGHLMO",0,"none","before+overlap","axis","linear","0","mike","reverse","NNQMR",1525073,31,43960,44,11,"0","TM-First","control","11","SGC2"
"linear_testing","G",1,"none","starts+finishes","axis","linear","0","mike","reverse","NNQMR",1542511,32,16185,16,12,"1","TM-First","control","12","SGC2"
"linear_testing","GO",1,"none","finishes","axis","linear","0","mike","reverse","NNQMR",1553887,33,10122,10,13,"1","TM-First","control","13","SGC2"
"linear_testing","9",1,"none","start+duration","axis","linear","0","mike","reverse","NNQMR",1572640,34,17498,17,14,"1","TM-First","control","14","SGC2"
"linear_testing","A",1,"none","during+overlap","axis","linear","0","mike","reverse","NNQMR",1607571,35,33680,34,15,"1","TM-First","control","15","SGC2"
"drawingTest","J4",0,"none","duration","jones","none","0","mike","reverse","NNQMR",2338307,38,74540,75,NA,"0","TM-First","control",NA,"SGC2"
"drawingTest","Chris3-4pm",1,"none","overlap","jones","none","0","mike","reverse","NNQMR",2432304,39,92677,93,NA,"1","TM-First","control",NA,"SGC2"
"triangular_scaffolded","HO",1,"show-interactive","start","axis","triangular","4","mike","reverse","M5B60",358303,5,77033,77,1,"1","TM-First","img:ixv","1","SGC2"
"triangular_scaffolded","4",1,"show-interactive","end","axis","triangular","4","mike","reverse","M5B60",369783,6,10147,10,2,"1","TM-First","img:ixv","2","SGC2"
"triangular_scaffolded","ACEFGHIKL",1,"show-interactive","duration","axis","triangular","4","mike","reverse","M5B60",431396,7,60369,60,3,"1","TM-First","img:ixv","3","SGC2"
"triangular_scaffolded","8",1,"show-interactive","midpoint","axis","triangular","4","mike","reverse","M5B60",462294,8,29568,30,4,"1","TM-First","img:ixv","4","SGC2"
"triangular_scaffolded","8",0,"show-interactive","start+overlap","axis","triangular","4","mike","reverse","M5B60",537281,9,73735,74,5,"0","TM-First","img:ixv","5","SGC2"
"triangular_testing","9",1,"none","start+duration","axis","triangular","4","mike","reverse","M5B60",557965,10,19352,19,6,"1","TM-First","img:ixv","6","SGC2"
"triangular_testing","DMNO",1,"none","contain+duration","axis","triangular","4","mike","reverse","M5B60",600841,11,41625,42,7,"1","TM-First","img:ixv","7","SGC2"
"triangular_testing","FMO",1,"none","during","axis","triangular","4","mike","reverse","M5B60",620807,12,18710,19,8,"1","TM-First","img:ixv","8","SGC2"
"triangular_testing","6",1,"none","starts","axis","triangular","4","mike","reverse","M5B60",654769,13,32711,33,9,"1","TM-First","img:ixv","9","SGC2"
"triangular_testing","A",1,"none","during+overlap","axis","triangular","4","mike","reverse","M5B60",680825,14,24804,25,10,"1","TM-First","img:ixv","10","SGC2"
"triangular_testing","G",1,"none","starts+finishes","axis","triangular","4","mike","reverse","M5B60",709001,15,26925,27,11,"1","TM-First","img:ixv","11","SGC2"
"triangular_testing","FGMO",1,"none","before+overlap","axis","triangular","4","mike","reverse","M5B60",749539,16,39290,39,12,"1","TM-First","img:ixv","12","SGC2"
"triangular_testing","FGMO",0,"none","meets","axis","triangular","4","mike","reverse","M5B60",800475,17,49680,50,13,"0","TM-First","img:ixv","13","SGC2"
"triangular_testing","ABCEFGJ",0,"none","overlap+overlap","axis","triangular","4","mike","reverse","M5B60",865109,18,63384,63,14,"0","TM-First","img:ixv","14","SGC2"
"triangular_testing","GO",1,"none","finishes","axis","triangular","4","mike","reverse","M5B60",881811,19,15278,15,15,"1","TM-First","img:ixv","15","SGC2"
"linear_scaffolded","CDL",1,"show-interactive","start","longmire","linear","4","mike","reverse","M5B60",918863,21,23954,24,1,"1","TM-First","img:ixv","1","SGC2"
"linear_scaffolded","HJKLMNO",1,"show-interactive","end","longmire","linear","4","mike","reverse","M5B60",975352,22,55242,55,2,"1","TM-First","img:ixv","2","SGC2"
"linear_scaffolded","GO",1,"show-interactive","duration","longmire","linear","4","mike","reverse","M5B60",1007223,23,30625,31,3,"1","TM-First","img:ixv","3","SGC2"
"linear_scaffolded","1",1,"show-interactive","midpoint","longmire","linear","4","mike","reverse","M5B60",1018300,24,9826,10,4,"1","TM-First","img:ixv","4","SGC2"
"linear_scaffolded","A",1,"show-interactive","start+overlap","longmire","linear","4","mike","reverse","M5B60",1037198,25,17649,18,5,"1","TM-First","img:ixv","5","SGC2"
"linear_testing","GO",1,"none","contain+duration","longmire","linear","4","mike","reverse","M5B60",1058227,26,19782,20,6,"1","TM-First","img:ixv","6","SGC2"
"linear_testing","ABDF",1,"none","start+duration","longmire","linear","4","mike","reverse","M5B60",1094063,27,34587,35,7,"1","TM-First","img:ixv","7","SGC2"
"linear_testing","ABCDFI",1,"none","before+overlap","longmire","linear","4","mike","reverse","M5B60",1138120,28,42785,43,8,"1","TM-First","img:ixv","8","SGC2"
"linear_testing","C",1,"none","starts+finishes","longmire","linear","4","mike","reverse","M5B60",1150808,29,11445,11,9,"1","TM-First","img:ixv","9","SGC2"
"linear_testing","68",1,"none","starts","longmire","linear","4","mike","reverse","M5B60",1190091,30,38038,38,10,"1","TM-First","img:ixv","10","SGC2"
"linear_testing","45",1,"none","finishes","longmire","linear","4","mike","reverse","M5B60",1235185,31,43836,44,11,"1","TM-First","img:ixv","11","SGC2"
"linear_testing","AMN",1,"none","overlap+overlap","longmire","linear","4","mike","reverse","M5B60",1278646,32,42211,42,12,"1","TM-First","img:ixv","12","SGC2"
"linear_testing","O",1,"none","meets","longmire","linear","4","mike","reverse","M5B60",1294389,33,14496,14,13,"1","TM-First","img:ixv","13","SGC2"
"linear_testing","KL",1,"none","during+overlap","longmire","linear","4","mike","reverse","M5B60",1329089,34,33454,33,14,"1","TM-First","img:ixv","14","SGC2"
"linear_testing","BCDFGHIJO",0,"none","during","longmire","linear","4","mike","reverse","M5B60",1389138,35,58783,59,15,"0","TM-First","img:ixv","15","SGC2"
"drawingTest",NA,0,"none","duration","jones","none","4","mike","reverse","M5B60",2389260,38,821502,822,NA,"0","TM-First","img:ixv",NA,"SGC2"
"drawingTest","Chris3-4pm",1,"none","overlap","jones","none","4","mike","reverse","M5B60",2472576,39,81941,82,NA,"1","TM-First","img:ixv",NA,"SGC2"
"triangular_scaffolded",NA,0,"none","start","longmire","triangular","0","mike","reverse","88WRE",366402,5,36260,36,1,"0","TM-First","control","1","SGC2"
"triangular_scaffolded","CEGHIJKLMNO",0,"none","end","longmire","triangular","0","mike","reverse","88WRE",455114,6,87441,87,2,"0","TM-First","control","2","SGC2"
"triangular_scaffolded","GO",1,"none","duration","longmire","triangular","0","mike","reverse","88WRE",476432,7,19978,20,3,"1","TM-First","control","3","SGC2"
"triangular_scaffolded","4",0,"none","midpoint","longmire","triangular","0","mike","reverse","88WRE",507934,8,30238,30,4,"0","TM-First","control","4","SGC2"
"triangular_scaffolded","O",0,"none","start+overlap","longmire","triangular","0","mike","reverse","88WRE",530981,9,21795,22,5,"0","TM-First","control","5","SGC2"
"triangular_testing","ABDF",1,"none","start+duration","longmire","triangular","0","mike","reverse","88WRE",560305,10,28075,28,6,"1","TM-First","control","6","SGC2"
"triangular_testing",NA,0,"none","finishes","longmire","triangular","0","mike","reverse","88WRE",665747,11,104191,104,7,"0","TM-First","control","7","SGC2"
"triangular_testing","9",0,"none","starts","longmire","triangular","0","mike","reverse","88WRE",856216,12,189145,189,8,"0","TM-First","control","8","SGC2"
"triangular_testing","BF",0,"none","contain+duration","longmire","triangular","0","mike","reverse","88WRE",882594,13,25034,25,9,"0","TM-First","control","9","SGC2"
"triangular_testing","ABDF",0,"none","before+overlap","longmire","triangular","0","mike","reverse","88WRE",919571,14,35727,36,10,"0","TM-First","control","10","SGC2"
"triangular_testing","GHJKLMNO",0,"none","during","longmire","triangular","0","mike","reverse","88WRE",983456,15,62638,63,11,"0","TM-First","control","11","SGC2"
"triangular_testing","B",0,"none","during+overlap","longmire","triangular","0","mike","reverse","88WRE",1030839,16,46044,46,12,"0","TM-First","control","12","SGC2"
"triangular_testing","AF",0,"none","overlap+overlap","longmire","triangular","0","mike","reverse","88WRE",1074695,17,42598,43,13,"0","TM-First","control","13","SGC2"
"triangular_testing","C",0,"none","meets","longmire","triangular","0","mike","reverse","88WRE",1111769,18,35828,36,14,"0","TM-First","control","14","SGC2"
"triangular_testing",NA,0,"none","starts+finishes","longmire","triangular","0","mike","reverse","88WRE",1141169,19,28142,28,15,"0","TM-First","control","15","SGC2"
"linear_scaffolded","HO",1,"none","start","axis","linear","0","mike","reverse","88WRE",1169862,21,13377,13,1,"1","TM-First","control","1","SGC2"
"linear_scaffolded","4",1,"none","end","axis","linear","0","mike","reverse","88WRE",1179926,22,8806,9,2,"1","TM-First","control","2","SGC2"
"linear_scaffolded","ACEGHIKL",0,"none","duration","axis","linear","0","mike","reverse","88WRE",1216754,23,35578,36,3,"0","TM-First","control","3","SGC2"
"linear_scaffolded","8",1,"none","midpoint","axis","linear","0","mike","reverse","88WRE",1245878,24,27870,28,4,"1","TM-First","control","4","SGC2"
"linear_scaffolded","7",1,"none","start+overlap","axis","linear","0","mike","reverse","88WRE",1297225,25,50093,50,5,"1","TM-First","control","5","SGC2"
"linear_testing","FMO",1,"none","during","axis","linear","0","mike","reverse","88WRE",1325169,26,26687,27,6,"1","TM-First","control","6","SGC2"
"linear_testing",NA,0,"none","during+overlap","axis","linear","0","mike","reverse","88WRE",1364082,27,37648,38,7,"0","TM-First","control","7","SGC2"
"linear_testing","MO",0,"none","before+overlap","axis","linear","0","mike","reverse","88WRE",1399746,28,34400,34,8,"0","TM-First","control","8","SGC2"
"linear_testing","ABCEL",0,"none","overlap+overlap","axis","linear","0","mike","reverse","88WRE",1434387,29,33386,33,9,"0","TM-First","control","9","SGC2"
"linear_testing","6",1,"none","starts","axis","linear","0","mike","reverse","88WRE",1465557,30,29917,30,10,"1","TM-First","control","10","SGC2"
"linear_testing","DMNO",1,"none","contain+duration","axis","linear","0","mike","reverse","88WRE",1504113,31,37294,37,11,"1","TM-First","control","11","SGC2"
"linear_testing","GO",1,"none","finishes","axis","linear","0","mike","reverse","88WRE",1522562,32,17201,17,12,"1","TM-First","control","12","SGC2"
"linear_testing","G",1,"none","starts+finishes","axis","linear","0","mike","reverse","88WRE",1538971,33,15157,15,13,"1","TM-First","control","13","SGC2"
"linear_testing","HIMNO",0,"none","meets","axis","linear","0","mike","reverse","88WRE",1593855,34,53629,54,14,"0","TM-First","control","14","SGC2"
"linear_testing","9",1,"none","start+duration","axis","linear","0","mike","reverse","88WRE",1608358,35,13234,13,15,"1","TM-First","control","15","SGC2"
"drawingTest","C1",1,"none","duration","jones","none","0","mike","reverse","88WRE",2354216,38,646234,646,NA,"1","TM-First","control",NA,"SGC2"
"drawingTest","Chris1-3pm",0,"none","overlap","jones","none","0","mike","reverse","88WRE",2440453,39,84905,85,NA,"0","TM-First","control",NA,"SGC2"
"triangular_scaffolded","B",0,"none","start","longmire","triangular","0","mike","reverse","WMC7L",389533,5,55864,56,1,"0","TM-First","control","1","SGC2"
"triangular_scaffolded","EGHIJKLMNO",0,"none","end","longmire","triangular","0","mike","reverse","WMC7L",475600,6,84822,85,2,"0","TM-First","control","2","SGC2"
"triangular_scaffolded","GO",1,"none","duration","longmire","triangular","0","mike","reverse","WMC7L",485317,7,8379,8,3,"1","TM-First","control","3","SGC2"
"triangular_scaffolded","4",0,"none","midpoint","longmire","triangular","0","mike","reverse","WMC7L",525097,8,38531,39,4,"0","TM-First","control","4","SGC2"
"triangular_scaffolded","A",1,"none","start+overlap","longmire","triangular","0","mike","reverse","WMC7L",552193,9,25846,26,5,"1","TM-First","control","5","SGC2"
"triangular_testing","D",0,"none","starts+finishes","longmire","triangular","0","mike","reverse","WMC7L",622214,10,68768,69,6,"0","TM-First","control","6","SGC2"
"triangular_testing",NA,0,"none","starts","longmire","triangular","0","mike","reverse","WMC7L",692035,11,68350,68,7,"0","TM-First","control","7","SGC2"
"triangular_testing","AB",0,"none","overlap+overlap","longmire","triangular","0","mike","reverse","WMC7L",771852,12,78472,78,8,"0","TM-First","control","8","SGC2"
"triangular_testing","GO",1,"none","contain+duration","longmire","triangular","0","mike","reverse","WMC7L",822111,13,48889,49,9,"1","TM-First","control","9","SGC2"
"triangular_testing","GHJKLMNO",0,"none","during","longmire","triangular","0","mike","reverse","WMC7L",885423,14,62067,62,10,"0","TM-First","control","10","SGC2"
"triangular_testing",NA,0,"none","finishes","longmire","triangular","0","mike","reverse","WMC7L",967334,15,80492,80,11,"0","TM-First","control","11","SGC2"
"triangular_testing","ABDF",0,"none","before+overlap","longmire","triangular","0","mike","reverse","WMC7L",1018344,16,49575,50,12,"0","TM-First","control","12","SGC2"
"triangular_testing","ABDF",1,"none","start+duration","longmire","triangular","0","mike","reverse","WMC7L",1044736,17,25146,25,13,"1","TM-First","control","13","SGC2"
"triangular_testing","B",0,"none","during+overlap","longmire","triangular","0","mike","reverse","WMC7L",1093895,18,47910,48,14,"0","TM-First","control","14","SGC2"
"triangular_testing","O",1,"none","meets","longmire","triangular","0","mike","reverse","WMC7L",1216767,19,121620,122,15,"1","TM-First","control","15","SGC2"
"linear_scaffolded","HO",1,"none","start","axis","linear","0","mike","reverse","WMC7L",1258172,21,14775,15,1,"1","TM-First","control","1","SGC2"
"linear_scaffolded","4",1,"none","end","axis","linear","0","mike","reverse","WMC7L",1270593,22,11167,11,2,"1","TM-First","control","2","SGC2"
"linear_scaffolded","ACEFGHIKL",1,"none","duration","axis","linear","0","mike","reverse","WMC7L",1315465,23,43621,44,3,"1","TM-First","control","3","SGC2"
"linear_scaffolded","8",1,"none","midpoint","axis","linear","0","mike","reverse","WMC7L",1340840,24,24121,24,4,"1","TM-First","control","4","SGC2"
"linear_scaffolded","7",1,"none","start+overlap","axis","linear","0","mike","reverse","WMC7L",1367821,25,25732,26,5,"1","TM-First","control","5","SGC2"
"linear_testing","G",1,"none","starts+finishes","axis","linear","0","mike","reverse","WMC7L",1404853,26,35780,36,6,"1","TM-First","control","6","SGC2"
"linear_testing","9",1,"none","start+duration","axis","linear","0","mike","reverse","WMC7L",1440826,27,34720,35,7,"1","TM-First","control","7","SGC2"
"linear_testing","FMO",1,"none","during","axis","linear","0","mike","reverse","WMC7L",1460178,28,18097,18,8,"1","TM-First","control","8","SGC2"
"linear_testing","FGMO",1,"none","before+overlap","axis","linear","0","mike","reverse","WMC7L",1516902,29,55472,55,9,"1","TM-First","control","9","SGC2"
"linear_testing","BCJ",0,"none","overlap+overlap","axis","linear","0","mike","reverse","WMC7L",1537433,30,19266,19,10,"0","TM-First","control","10","SGC2"
"linear_testing","5",0,"none","starts","axis","linear","0","mike","reverse","WMC7L",1559443,31,20757,21,11,"0","TM-First","control","11","SGC2"
"linear_testing","G",1,"none","meets","axis","linear","0","mike","reverse","WMC7L",1615352,32,54655,55,12,"1","TM-First","control","12","SGC2"
"linear_testing","DMNO",1,"none","contain+duration","axis","linear","0","mike","reverse","WMC7L",1645897,33,29277,29,13,"1","TM-First","control","13","SGC2"
"linear_testing","A",1,"none","during+overlap","axis","linear","0","mike","reverse","WMC7L",1676260,34,29108,29,14,"1","TM-First","control","14","SGC2"
"linear_testing","GO",1,"none","finishes","axis","linear","0","mike","reverse","WMC7L",1692788,35,15276,15,15,"1","TM-First","control","15","SGC2"
"drawingTest","C1",1,"none","duration","jones","none","0","mike","reverse","WMC7L",2336167,38,82164,82,NA,"1","TM-First","control",NA,"SGC2"
"drawingTest","Chris3-4pm",1,"none","overlap","jones","none","0","mike","reverse","WMC7L",2397417,39,59932,60,NA,"1","TM-First","control",NA,"SGC2"
"triangular_scaffolded","CDL",1,"describe-what","start","longmire","triangular","1","mike","reverse","6SESR",394305,5,78856,79,1,"1","TM-First","text:what","1","SGC2"
"triangular_scaffolded","HJKLMNO",1,"describe-what","end","longmire","triangular","1","mike","reverse","6SESR",425460,6,29823,30,2,"1","TM-First","text:what","2","SGC2"
"triangular_scaffolded","GO",1,"describe-what","duration","longmire","triangular","1","mike","reverse","6SESR",437100,7,10396,10,3,"1","TM-First","text:what","3","SGC2"
"triangular_scaffolded","1",1,"describe-what","midpoint","longmire","triangular","1","mike","reverse","6SESR",465683,8,27339,27,4,"1","TM-First","text:what","4","SGC2"
"triangular_scaffolded","H",0,"describe-what","start+overlap","longmire","triangular","1","mike","reverse","6SESR",514327,9,47391,47,5,"0","TM-First","text:what","5","SGC2"
"triangular_testing","C",1,"none","starts+finishes","longmire","triangular","1","mike","reverse","6SESR",570545,10,54972,55,6,"1","TM-First","text:what","6","SGC2"
"triangular_testing","ABDF",1,"none","start+duration","longmire","triangular","1","mike","reverse","6SESR",608939,11,37148,37,7,"1","TM-First","text:what","7","SGC2"
"triangular_testing","ABDFIM",0,"none","before+overlap","longmire","triangular","1","mike","reverse","6SESR",701934,12,91737,92,8,"0","TM-First","text:what","8","SGC2"
"triangular_testing","EKL",0,"none","during+overlap","longmire","triangular","1","mike","reverse","6SESR",774673,13,71275,71,9,"0","TM-First","text:what","9","SGC2"
"triangular_testing","45",1,"none","finishes","longmire","triangular","1","mike","reverse","6SESR",811516,14,35521,36,10,"1","TM-First","text:what","10","SGC2"
"triangular_testing","GO",1,"none","contain+duration","longmire","triangular","1","mike","reverse","6SESR",853198,15,40387,40,11,"1","TM-First","text:what","11","SGC2"
"triangular_testing","AMN",1,"none","overlap+overlap","longmire","triangular","1","mike","reverse","6SESR",890262,16,35814,36,12,"1","TM-First","text:what","12","SGC2"
"triangular_testing","BG",0,"none","during","longmire","triangular","1","mike","reverse","6SESR",912794,17,21287,21,13,"0","TM-First","text:what","13","SGC2"
"triangular_testing","68",1,"none","starts","longmire","triangular","1","mike","reverse","6SESR",938518,18,24473,24,14,"1","TM-First","text:what","14","SGC2"
"triangular_testing","O",1,"none","meets","longmire","triangular","1","mike","reverse","6SESR",968163,19,28388,28,15,"1","TM-First","text:what","15","SGC2"
"linear_scaffolded","HO",1,"describe-what","start","axis","linear","1","mike","reverse","6SESR",1003163,21,18494,18,1,"1","TM-First","text:what","1","SGC2"
"linear_scaffolded","4",1,"describe-what","end","axis","linear","1","mike","reverse","6SESR",1013907,22,9500,10,2,"1","TM-First","text:what","2","SGC2"
"linear_scaffolded","ACEFGHIKL",1,"describe-what","duration","axis","linear","1","mike","reverse","6SESR",1065935,23,50782,51,3,"1","TM-First","text:what","3","SGC2"
"linear_scaffolded","8",1,"describe-what","midpoint","axis","linear","1","mike","reverse","6SESR",1089512,24,22329,22,4,"1","TM-First","text:what","4","SGC2"
"linear_scaffolded","7",1,"describe-what","start+overlap","axis","linear","1","mike","reverse","6SESR",1118017,25,27259,27,5,"1","TM-First","text:what","5","SGC2"
"linear_testing","ABCEJ",1,"none","overlap+overlap","axis","linear","1","mike","reverse","6SESR",1154189,26,34922,35,6,"1","TM-First","text:what","6","SGC2"
"linear_testing","2",0,"none","starts","axis","linear","1","mike","reverse","6SESR",1186422,27,30985,31,7,"0","TM-First","text:what","7","SGC2"
"linear_testing","9",1,"none","start+duration","axis","linear","1","mike","reverse","6SESR",1204684,28,17012,17,8,"1","TM-First","text:what","8","SGC2"
"linear_testing","FGMO",0,"none","meets","axis","linear","1","mike","reverse","6SESR",1275406,29,69475,69,9,"0","TM-First","text:what","9","SGC2"
"linear_testing","FMO",1,"none","during","axis","linear","1","mike","reverse","6SESR",1309997,30,33166,33,10,"1","TM-First","text:what","10","SGC2"
"linear_testing","A",1,"none","during+overlap","axis","linear","1","mike","reverse","6SESR",1343327,31,32077,32,11,"1","TM-First","text:what","11","SGC2"
"linear_testing","FGMO",1,"none","before+overlap","axis","linear","1","mike","reverse","6SESR",1384961,32,40379,40,12,"1","TM-First","text:what","12","SGC2"
"linear_testing","G",1,"none","starts+finishes","axis","linear","1","mike","reverse","6SESR",1405131,33,18912,19,13,"1","TM-First","text:what","13","SGC2"
"linear_testing","DMNO",1,"none","contain+duration","axis","linear","1","mike","reverse","6SESR",1451863,34,45483,45,14,"1","TM-First","text:what","14","SGC2"
"linear_testing","GO",1,"none","finishes","axis","linear","1","mike","reverse","6SESR",1465045,35,11918,12,15,"1","TM-First","text:what","15","SGC2"
"drawingTest","C1",1,"none","duration","jones","none","1","mike","reverse","6SESR",2451619,38,46014,46,NA,"1","TM-First","text:what",NA,"SGC2"
"drawingTest","Chris3-4pm",1,"none","overlap","jones","none","1","mike","reverse","6SESR",2505827,39,52947,53,NA,"1","TM-First","text:what",NA,"SGC2"
"linear_scaffolded","CDL",1,"none","start","longmire","linear","0","mike","experiment","YJRLT",290955,5,16570,17,1,"1","LM-First","control","1","SGC2"
"linear_scaffolded","HJKLMNO",1,"none","end","longmire","linear","0","mike","experiment","YJRLT",327544,6,35333,35,2,"1","LM-First","control","2","SGC2"
"linear_scaffolded","GO",1,"none","duration","longmire","linear","0","mike","experiment","YJRLT",352692,7,23893,24,3,"1","LM-First","control","3","SGC2"
"linear_scaffolded","1",1,"none","midpoint","longmire","linear","0","mike","experiment","YJRLT",369412,8,15466,15,4,"1","LM-First","control","4","SGC2"
"linear_scaffolded","A",1,"none","start+overlap","longmire","linear","0","mike","experiment","YJRLT",388829,9,18164,18,5,"1","LM-First","control","5","SGC2"
"linear_testing","ABDF",1,"none","start+duration","longmire","linear","0","mike","experiment","YJRLT",426678,10,36593,37,6,"1","LM-First","control","6","SGC2"
"linear_testing","GO",1,"none","contain+duration","longmire","linear","0","mike","experiment","YJRLT",448557,11,20624,21,7,"1","LM-First","control","7","SGC2"
"linear_testing","JKL",0,"none","during+overlap","longmire","linear","0","mike","experiment","YJRLT",492577,12,42770,43,8,"0","LM-First","control","8","SGC2"
"linear_testing","45",1,"none","finishes","longmire","linear","0","mike","experiment","YJRLT",520273,13,26440,26,9,"1","LM-First","control","9","SGC2"
"linear_testing","AMN",1,"none","overlap+overlap","longmire","linear","0","mike","experiment","YJRLT",544451,14,22925,23,10,"1","LM-First","control","10","SGC2"
"linear_testing","BCDF",0,"none","during","longmire","linear","0","mike","experiment","YJRLT",660620,15,114902,115,11,"0","LM-First","control","11","SGC2"
"linear_testing","68",1,"none","starts","longmire","linear","0","mike","experiment","YJRLT",689256,16,27181,27,12,"1","LM-First","control","12","SGC2"
"linear_testing","O",1,"none","meets","longmire","linear","0","mike","experiment","YJRLT",710987,17,20484,20,13,"1","LM-First","control","13","SGC2"
"linear_testing","C",1,"none","starts+finishes","longmire","linear","0","mike","experiment","YJRLT",735732,18,23483,23,14,"1","LM-First","control","14","SGC2"
"linear_testing","ABCDFI",1,"none","before+overlap","longmire","linear","0","mike","experiment","YJRLT",798177,19,61198,61,15,"1","LM-First","control","15","SGC2"
"triangular_scaffolded","G",0,"none","start","axis","triangular","0","mike","experiment","YJRLT",820326,21,12098,12,1,"0","LM-First","control","1","SGC2"
"triangular_scaffolded","6",0,"none","end","axis","triangular","0","mike","experiment","YJRLT",894292,22,72714,73,2,"0","LM-First","control","2","SGC2"
"triangular_scaffolded","ACEFGHIKL",1,"none","duration","axis","triangular","0","mike","experiment","YJRLT",926036,23,30317,30,3,"1","LM-First","control","3","SGC2"
"triangular_scaffolded","4",0,"none","midpoint","axis","triangular","0","mike","experiment","YJRLT",1027001,24,99720,100,4,"0","LM-First","control","4","SGC2"
"triangular_scaffolded","12",0,"none","start+overlap","axis","triangular","0","mike","experiment","YJRLT",1126420,25,97999,98,5,"0","LM-First","control","5","SGC2"
"triangular_testing","4",0,"none","starts","axis","triangular","0","mike","experiment","YJRLT",1141026,26,13182,13,6,"0","LM-First","control","6","SGC2"
"triangular_testing","F",0,"none","meets","axis","triangular","0","mike","experiment","YJRLT",1194225,27,51945,52,7,"0","LM-First","control","7","SGC2"
"triangular_testing","FM",0,"none","before+overlap","axis","triangular","0","mike","experiment","YJRLT",1261205,28,65731,66,8,"0","LM-First","control","8","SGC2"
"triangular_testing","E",0,"none","starts+finishes","axis","triangular","0","mike","experiment","YJRLT",1370446,29,107818,108,9,"0","LM-First","control","9","SGC2"
"triangular_testing","NO",0,"none","contain+duration","axis","triangular","0","mike","experiment","YJRLT",1400433,30,28641,29,10,"0","LM-First","control","10","SGC2"
"triangular_testing","10",0,"none","start+duration","axis","triangular","0","mike","experiment","YJRLT",1413586,31,11900,12,11,"0","LM-First","control","11","SGC2"
"triangular_testing","E",0,"none","during+overlap","axis","triangular","0","mike","experiment","YJRLT",1439803,32,24961,25,12,"0","LM-First","control","12","SGC2"
"triangular_testing","BCEJ",0,"none","overlap+overlap","axis","triangular","0","mike","experiment","YJRLT",1480924,33,39872,40,13,"0","LM-First","control","13","SGC2"
"triangular_testing","GO",1,"none","finishes","axis","triangular","0","mike","experiment","YJRLT",1555302,34,73130,73,14,"1","LM-First","control","14","SGC2"
"triangular_testing","NO",0,"none","during","axis","triangular","0","mike","experiment","YJRLT",1576520,35,19887,20,15,"0","LM-First","control","15","SGC2"
"drawingTest","A1",0,"none","duration","jones","none","0","mike","experiment","YJRLT",2472144,38,20954,21,NA,"0","LM-First","control",NA,"SGC2"
"drawingTest","Chris3-4pm",1,"none","overlap","jones","none","0","mike","experiment","YJRLT",2524793,39,51393,51,NA,"1","LM-First","control",NA,"SGC2"
"linear_scaffolded","HO",1,"describe-how","start","axis","linear","2","mike","experiment","59BNT",230694,5,43866,44,1,"1","LM-First","text:how","1","SGC2"
"linear_scaffolded","4",1,"describe-how","end","axis","linear","2","mike","experiment","59BNT",240023,6,8068,8,2,"1","LM-First","text:how","2","SGC2"
"linear_scaffolded","ACEFGHIKL",1,"describe-how","duration","axis","linear","2","mike","experiment","59BNT",281342,7,40074,40,3,"1","LM-First","text:how","3","SGC2"
"linear_scaffolded","10",0,"describe-how","midpoint","axis","linear","2","mike","experiment","59BNT",317945,8,35354,35,4,"0","LM-First","text:how","4","SGC2"
"linear_scaffolded","710",0,"describe-how","start+overlap","axis","linear","2","mike","experiment","59BNT",351674,9,32484,32,5,"0","LM-First","text:how","5","SGC2"
"linear_testing","ABCEJ",1,"none","overlap+overlap","axis","linear","2","mike","experiment","59BNT",378991,10,26068,26,6,"1","LM-First","text:how","6","SGC2"
"linear_testing","GO",1,"none","finishes","axis","linear","2","mike","experiment","59BNT",392374,11,12135,12,7,"1","LM-First","text:how","7","SGC2"
"linear_testing","A",1,"none","during+overlap","axis","linear","2","mike","experiment","59BNT",429840,12,36215,36,8,"1","LM-First","text:how","8","SGC2"
"linear_testing","DMNO",1,"none","contain+duration","axis","linear","2","mike","experiment","59BNT",471143,13,40048,40,9,"1","LM-First","text:how","9","SGC2"
"linear_testing","FMO",0,"none","before+overlap","axis","linear","2","mike","experiment","59BNT",512256,14,39861,40,10,"0","LM-First","text:how","10","SGC2"
"linear_testing","G",1,"none","meets","axis","linear","2","mike","experiment","59BNT",558395,15,44888,45,11,"1","LM-First","text:how","11","SGC2"
"linear_testing","6",1,"none","starts","axis","linear","2","mike","experiment","59BNT",587252,16,27592,28,12,"1","LM-First","text:how","12","SGC2"
"linear_testing","FMO",1,"none","during","axis","linear","2","mike","experiment","59BNT",621214,17,32670,33,13,"1","LM-First","text:how","13","SGC2"
"linear_testing","G",1,"none","starts+finishes","axis","linear","2","mike","experiment","59BNT",638971,18,16499,16,14,"1","LM-First","text:how","14","SGC2"
"linear_testing","9",1,"none","start+duration","axis","linear","2","mike","experiment","59BNT",667096,19,26873,27,15,"1","LM-First","text:how","15","SGC2"
"triangular_scaffolded","CDL",1,"describe-how","start","longmire","triangular","2","mike","experiment","59BNT",778171,21,90330,90,1,"1","LM-First","text:how","1","SGC2"
"triangular_scaffolded","HJKLMNO",1,"describe-how","end","longmire","triangular","2","mike","experiment","59BNT",884128,22,104603,105,2,"1","LM-First","text:how","2","SGC2"
"triangular_scaffolded","GO",1,"describe-how","duration","longmire","triangular","2","mike","experiment","59BNT",893791,23,8325,8,3,"1","LM-First","text:how","3","SGC2"
"triangular_scaffolded","1",1,"describe-how","midpoint","longmire","triangular","2","mike","experiment","59BNT",908978,24,13930,14,4,"1","LM-First","text:how","4","SGC2"
"triangular_scaffolded","A",1,"describe-how","start+overlap","longmire","triangular","2","mike","experiment","59BNT",948012,25,37785,38,5,"1","LM-First","text:how","5","SGC2"
"triangular_testing","ABCDFI",1,"none","before+overlap","longmire","triangular","2","mike","experiment","59BNT",988974,26,39715,40,6,"1","LM-First","text:how","6","SGC2"
"triangular_testing","KL",1,"none","during+overlap","longmire","triangular","2","mike","experiment","59BNT",1080376,27,90151,90,7,"1","LM-First","text:how","7","SGC2"
"triangular_testing","AMN",1,"none","overlap+overlap","longmire","triangular","2","mike","experiment","59BNT",1114656,28,32901,33,8,"1","LM-First","text:how","8","SGC2"
"triangular_testing","BCDFGHIJLO",0,"none","during","longmire","triangular","2","mike","experiment","59BNT",1207886,29,91979,92,9,"0","LM-First","text:how","9","SGC2"
"triangular_testing","68",1,"none","starts","longmire","triangular","2","mike","experiment","59BNT",1240681,30,31456,31,10,"1","LM-First","text:how","10","SGC2"
"triangular_testing","C",1,"none","starts+finishes","longmire","triangular","2","mike","experiment","59BNT",1252370,31,10437,10,11,"1","LM-First","text:how","11","SGC2"
"triangular_testing","45",1,"none","finishes","longmire","triangular","2","mike","experiment","59BNT",1273316,32,19697,20,12,"1","LM-First","text:how","12","SGC2"
"triangular_testing","O",1,"none","meets","longmire","triangular","2","mike","experiment","59BNT",1298947,33,24379,24,13,"1","LM-First","text:how","13","SGC2"
"triangular_testing","GO",1,"none","contain+duration","longmire","triangular","2","mike","experiment","59BNT",1316315,34,16123,16,14,"1","LM-First","text:how","14","SGC2"
"triangular_testing","ABDF",1,"none","start+duration","longmire","triangular","2","mike","experiment","59BNT",1369694,35,52129,52,15,"1","LM-First","text:how","15","SGC2"
"drawingTest","C1",1,"none","duration","jones","none","2","mike","experiment","59BNT",2385089,38,81269,81,NA,"1","LM-First","text:how",NA,"SGC2"
"drawingTest","Chris3-4pm",1,"none","overlap","jones","none","2","mike","experiment","59BNT",2428732,39,42246,42,NA,"1","LM-First","text:how",NA,"SGC2"
"triangular_scaffolded","CDL",1,"none","start","longmire","triangular","0","mike","reverse","14F0J",344118,5,61391,61,1,"1","TM-First","control","1","SGC2"
"triangular_scaffolded","MN",0,"none","end","longmire","triangular","0","mike","reverse","14F0J",367477,6,22010,22,2,"0","TM-First","control","2","SGC2"
"triangular_scaffolded","GO",1,"none","duration","longmire","triangular","0","mike","reverse","14F0J",381554,7,12820,13,3,"1","TM-First","control","3","SGC2"
"triangular_scaffolded","1",1,"none","midpoint","longmire","triangular","0","mike","reverse","14F0J",459427,8,76624,77,4,"1","TM-First","control","4","SGC2"
"triangular_scaffolded","A",1,"none","start+overlap","longmire","triangular","0","mike","reverse","14F0J",491123,9,30356,30,5,"1","TM-First","control","5","SGC2"
"triangular_testing","ABDF",1,"none","start+duration","longmire","triangular","0","mike","reverse","14F0J",569282,10,76905,77,6,"1","TM-First","control","6","SGC2"
"triangular_testing","68",1,"none","starts","longmire","triangular","0","mike","reverse","14F0J",618461,11,47843,48,7,"1","TM-First","control","7","SGC2"
"triangular_testing","AMN",1,"none","overlap+overlap","longmire","triangular","0","mike","reverse","14F0J",663679,12,43958,44,8,"1","TM-First","control","8","SGC2"
"triangular_testing","O",1,"none","meets","longmire","triangular","0","mike","reverse","14F0J",696030,13,31106,31,9,"1","TM-First","control","9","SGC2"
"triangular_testing","GO",1,"none","contain+duration","longmire","triangular","0","mike","reverse","14F0J",717789,14,20502,21,10,"1","TM-First","control","10","SGC2"
"triangular_testing","ABCDFI",1,"none","before+overlap","longmire","triangular","0","mike","reverse","14F0J",784754,15,65718,66,11,"1","TM-First","control","11","SGC2"
"triangular_testing","45",1,"none","finishes","longmire","triangular","0","mike","reverse","14F0J",827096,16,41007,41,12,"1","TM-First","control","12","SGC2"
"triangular_testing","BG",0,"none","during","longmire","triangular","0","mike","reverse","14F0J",919255,17,90885,91,13,"0","TM-First","control","13","SGC2"
"triangular_testing","KL",1,"none","during+overlap","longmire","triangular","0","mike","reverse","14F0J",1016338,18,95745,96,14,"1","TM-First","control","14","SGC2"
"triangular_testing","C",1,"none","starts+finishes","longmire","triangular","0","mike","reverse","14F0J",1042497,19,24825,25,15,"1","TM-First","control","15","SGC2"
"linear_scaffolded","HO",1,"none","start","axis","linear","0","mike","reverse","14F0J",1093351,21,30068,30,1,"1","TM-First","control","1","SGC2"
"linear_scaffolded","4",1,"none","end","axis","linear","0","mike","reverse","14F0J",1109002,22,14394,14,2,"1","TM-First","control","2","SGC2"
"linear_scaffolded","ACEFGHIKL",1,"none","duration","axis","linear","0","mike","reverse","14F0J",1179290,23,69019,69,3,"1","TM-First","control","3","SGC2"
"linear_scaffolded","8",1,"none","midpoint","axis","linear","0","mike","reverse","14F0J",1212568,24,31932,32,4,"1","TM-First","control","4","SGC2"
"linear_scaffolded","7",1,"none","start+overlap","axis","linear","0","mike","reverse","14F0J",1252939,25,39124,39,5,"1","TM-First","control","5","SGC2"
"linear_testing","GO",1,"none","finishes","axis","linear","0","mike","reverse","14F0J",1272075,26,17886,18,6,"1","TM-First","control","6","SGC2"
"linear_testing","G",1,"none","meets","axis","linear","0","mike","reverse","14F0J",1345745,27,72422,72,7,"1","TM-First","control","7","SGC2"
"linear_testing","A",1,"none","during+overlap","axis","linear","0","mike","reverse","14F0J",1384794,28,37685,38,8,"1","TM-First","control","8","SGC2"
"linear_testing","G",1,"none","starts+finishes","axis","linear","0","mike","reverse","14F0J",1407468,29,21344,21,9,"1","TM-First","control","9","SGC2"
"linear_testing","FGMO",1,"none","before+overlap","axis","linear","0","mike","reverse","14F0J",1511855,30,103132,103,10,"1","TM-First","control","10","SGC2"
"linear_testing","DMNO",1,"none","contain+duration","axis","linear","0","mike","reverse","14F0J",1580795,31,67599,68,11,"1","TM-First","control","11","SGC2"
