[{"_id":{"$oid":"6180b600732570cf33cf5226"},"answer":"Search the y-axis for the desired start time. In this case, it is 12pm. Then trace the line stemming from the mark at 12pm that angles to the right until a point is reached to find the event starting at 12pm.","block":"triangular_testing","condition":"113","experiment":"2YP3","graph":"triangular","internal_node_id":"0.0-7.0-0.0","q":16,"rt":84435,"session":"kilo","subject":"ZUJQV","time_elapsed":541204,"trial_index":20,"trial_type":"html","url":"../views/src/external/stimulus.html"},{"_id":{"$oid":"6180b600732570cf33cf523e"},"answer":"Look on the horizontal axis and go vertical ","block":"triangular_testing","condition":"113","experiment":"2YP3","graph":"triangular","internal_node_id":"0.0-7.0-0.0","q":16,"rt":22502,"session":"kilo","subject":"XKNWZ","time_elapsed":573245,"trial_index":20,"trial_type":"html","url":"../views/src/external/stimulus.html"},{"_id":{"$oid":"6180b600732570cf33cf5256"},"answer":"Find 12 PM on the horizontal line and go straight up to see if there are any points that indicate events that start at 12 pm.","block":"triangular_testing","condition":"113","experiment":"2YP3","graph":"triangular","internal_node_id":"0.0-7.0-0.0","q":16,"rt":45457,"session":"kilo","subject":"ZB1L5","time_elapsed":744947,"trial_index":20,"trial_type":"html","url":"../views/src/external/stimulus.html"},{"_id":{"$oid":"6180b600732570cf33cf526e"},"answer":"Shifts F and B start. Shift J ends, Shift I and J ends. Shift E is still going on.\n\nLook to the left of 12 to see what shifts are still occurring/ending, and also look at 12 to see what shifts are starting.  ","block":"triangular_testing","condition":"113","experiment":"2YP3","graph":"triangular","internal_node_id":"0.0-7.0-0.0","q":16,"rt":61038,"session":"kilo","subject":"3Z8ZL","time_elapsed":627701,"trial_index":20,"trial_type":"html","url":"../views/src/external/stimulus.html"},{"_id":{"$oid":"6180b600732570cf33cf5286"},"answer":"Go on the bottom, find 12pm and look to see which letters fall on that line vertically. ","block":"triangular_testing","condition":"113","experiment":"2YP3","graph":"triangular","internal_node_id":"0.0-7.0-0.0","q":16,"rt":30325,"session":"kilo","subject":"FN9LT","time_elapsed":818369,"trial_index":20,"trial_type":"html","url":"../views/src/external/stimulus.html"},{"_id":{"$oid":"6180b600732570cf33cf529e"},"answer":"To determine what events start at 12pm, locate the 12pm time at the base of the pyramid and observe which letters are dotted along the right horizontal line coming from \"12pm\"","block":"triangular_testing","condition":"113","experiment":"2YP3","graph":"triangular","internal_node_id":"0.0-7.0-0.0","q":16,"rt":78182,"session":"kilo","subject":"M3NXB","time_elapsed":862324,"trial_index":20,"trial_type":"html","url":"../views/src/external/stimulus.html"},{"_id":{"$oid":"6180b600732570cf33cf52b6"},"answer":"you look where it says 12 pm\n","block":"triangular_testing","condition":"113","experiment":"2YP3","graph":"triangular","internal_node_id":"0.0-7.0-0.0","q":16,"rt":49707,"session":"kilo","subject":"SWST4","time_elapsed":673611,"trial_index":20,"trial_type":"html","url":"../views/src/external/stimulus.html"},{"_id":{"$oid":"6180b600732570cf33cf52ce"},"answer":"I look at the x-axis which is the bottom axis who's title is start & end time. I look at the x-axis, i find 12pm on it and that helps me determine what starts at 12pm.","block":"triangular_testing","condition":"113","experiment":"2YP3","graph":"triangular","internal_node_id":"0.0-7.0-0.0","q":16,"rt":43185,"session":"kilo","subject":"WBR05","time_elapsed":763525,"trial_index":20,"trial_type":"html","url":"../views/src/external/stimulus.html"},{"_id":{"$oid":"6180b600732570cf33cf52e6"},"answer":"you look at the x axis, find 12pm, and movce up from there to see if either a shift starts,ends, etc.","block":"triangular_testing","condition":"113","experiment":"2YP3","graph":"triangular","internal_node_id":"0.0-7.0-0.0","q":16,"rt":47379,"session":"kilo","subject":"X66XB","time_elapsed":782937,"trial_index":20,"trial_type":"html","url":"../views/src/external/stimulus.html"},{"_id":{"$oid":"6180b600732570cf33cf52fe"},"answer":"x axis 12 PM, so F & B","block":"triangular_testing","condition":"113","experiment":"2YP3","graph":"triangular","internal_node_id":"0.0-7.0-0.0","q":16,"rt":21385,"session":"kilo","subject":"K2YPP","time_elapsed":533284,"trial_index":20,"trial_type":"html","url":"../views/src/external/stimulus.html"},{"_id":{"$oid":"6180b600732570cf33cf5316"},"answer":"To determine the events that start at 12 pm, you must first locate 12 pm on the x-axis. Once you find the location of 12 pm on the x-axis, follow the line with the positive slope that stems out from the 12 pm mark. Every shift that is along that line will start at 12 pm. In this case, shifts M and L are found on that line, meaning that they will both start at 12 pm.","block":"triangular_testing","condition":"115","experiment":"2YP3","graph":"triangular","internal_node_id":"0.0-7.0-0.0","q":16,"rt":178074,"session":"lima","subject":"RV9F6","time_elapsed":717646,"trial_index":20,"trial_type":"html","url":"../views/src/external/stimulus.html"},{"_id":{"$oid":"6180b600732570cf33cf532e"},"answer":"Any dot that the diagonal line with positive/increasing slope beginning at 12pm passes through","block":"triangular_testing","condition":"113","experiment":"2YP3","graph":"triangular","internal_node_id":"0.0-7.0-0.0","q":16,"rt":155007,"session":"kilo","subject":"NVGH4","time_elapsed":1288053,"trial_index":20,"trial_type":"html","url":"../views/src/external/stimulus.html"},{"_id":{"$oid":"6180b600732570cf33cf5346"},"answer":"Compare the various start times to see who's breaks overlap and who starts work and who is finished up for the day.","block":"triangular_testing","condition":"113","experiment":"2YP3","graph":"triangular","internal_node_id":"0.0-7.0-0.0","q":16,"rt":29520,"session":"kilo","subject":"HZWEH","time_elapsed":1163882,"trial_index":20,"trial_type":"html","url":"../views/src/external/stimulus.html"},{"_id":{"$oid":"6180b600732570cf33cf535e"},"answer":"By looking at the X-axis and seeing the points that fall under the 12pm category.","block":"triangular_testing","condition":"115","experiment":"2YP3","graph":"triangular","internal_node_id":"0.0-7.0-0.0","q":16,"rt":42610,"session":"lima","subject":"EJPRM","time_elapsed":931213,"trial_index":20,"trial_type":"html","url":"../views/src/external/stimulus.html"},{"_id":{"$oid":"6180b600732570cf33cf5376"},"answer":"look at the x axis, find 12 AND THEN GO UP THE Y AXIS FROM THAT POINT AND NOTE ALL THE SHADED DOTS","block":"triangular_testing","condition":"115-late","experiment":"2YP3","graph":"triangular","internal_node_id":"0.0-7.0-0.0","q":16,"rt":43125,"session":"lima","subject":"3H1U8","time_elapsed":582961,"trial_index":20,"trial_type":"html","url":"../views/src/external/stimulus.html"},{"_id":{"$oid":"6180b600732570cf33cf538e"},"answer":"To figure out what events start at 12 pm, you trace the start time of 12pm to the duration in hours.","block":"triangular_testing","condition":"115","experiment":"2YP3","graph":"triangular","internal_node_id":"0.0-7.0-0.0","q":16,"rt":35620,"session":"mike","subject":"967LR","time_elapsed":603455,"trial_index":20,"trial_type":"html","url":"../views/src/external/stimulus.html"},{"_id":{"$oid":"6180b600732570cf33cf53a6"},"answer":"Looking at the X-axis, find 12 pm and go straight up to see which events/shifts begin at that time","block":"triangular_testing","condition":"115","experiment":"2YP3","graph":"triangular","internal_node_id":"0.0-7.0-0.0","q":16,"rt":41045,"session":"mike","subject":"W8QKU","time_elapsed":586108,"trial_index":20,"trial_type":"html","url":"../views/src/external/stimulus.html"},{"_id":{"$oid":"6180b600732570cf33cf53d6"},"answer":"I look at the points on the 12 pm y axis and then look at other points to see if events ending later could possibly start at 12 pm by subtracting hours\n","block":"triangular_testing","condition":"115","experiment":"2YP3","graph":"triangular","internal_node_id":"0.0-7.0-0.0","q":16,"rt":53121,"session":"lima","subject":"MW3RC","time_elapsed":849580,"trial_index":20,"trial_type":"html","url":"../views/src/external/stimulus.html"},{"_id":{"$oid":"6180b600732570cf33cf53ee"},"answer":"i personally find 12pm on the x-axis and drag my finger upward. whichever shift overlaps i note down.","block":"triangular_testing","condition":"113","experiment":"2YP3","graph":"triangular","internal_node_id":"0.0-7.0-0.0","q":16,"rt":52087,"session":"kilo","subject":"F98S2","time_elapsed":807411,"trial_index":20,"trial_type":"html","url":"../views/src/external/stimulus.html"},{"_id":{"$oid":"6180b600732570cf33cf5406"},"answer":"I look at the start time of the day ","block":"triangular_testing","condition":"115","experiment":"2YP3","graph":"triangular","internal_node_id":"0.0-7.0-0.0","q":16,"rt":29801,"session":"mike","subject":"CE2FW","time_elapsed":673706,"trial_index":20,"trial_type":"html","url":"../views/src/external/stimulus.html"},{"_id":{"$oid":"6180b600732570cf33cf541e"},"answer":"Go to the 12pm marker at bottom then follow it up the cross section to see the dots that fall onto the time ","block":"triangular_testing","condition":"115","experiment":"2YP3","graph":"triangular","internal_node_id":"0.0-7.0-0.0","q":16,"rt":41447,"session":"mike","subject":"5QCE3","time_elapsed":780725,"trial_index":20,"trial_type":"html","url":"../views/src/external/stimulus.html"},{"_id":{"$oid":"6180b600732570cf33cf5436"},"answer":"check the x axis and see what points lie on the 12pm \n","block":"triangular_testing","condition":"115","experiment":"2YP3","graph":"triangular","internal_node_id":"0.0-7.0-0.0","q":16,"rt":32990,"session":"mike","subject":"AKYQ8","time_elapsed":750249,"trial_index":20,"trial_type":"html","url":"../views/src/external/stimulus.html"},{"_id":{"$oid":"6180b600732570cf33cf544e"},"answer":"look for 12 pm on the x axis and see what letters are on the graph when x = 12 pm ","block":"triangular_testing","condition":"115","experiment":"2YP3","graph":"triangular","internal_node_id":"0.0-7.0-0.0","q":16,"rt":34266,"session":"mike","subject":"FL092","time_elapsed":884744,"trial_index":20,"trial_type":"html","url":"../views/src/external/stimulus.html"},{"_id":{"$oid":"6180b600732570cf33cf5466"},"answer":"if you look at the horizontal axis and look at the 12pm mark you can see which shifts start at 12pm by seeing which dot matches up to that mark vertically.\n","block":"triangular_testing","condition":"115-late","experiment":"2YP3","graph":"triangular","internal_node_id":"0.0-7.0-0.0","q":16,"rt":110162,"session":"mike","subject":"YC7SX","time_elapsed":809510,"trial_index":20,"trial_type":"html","url":"../views/src/external/stimulus.html"},{"_id":{"$oid":"6180b600732570cf33cf547e"},"answer":"look at 12pm and what is above are the events start at 12pm\n","block":"triangular_testing","condition":"115","experiment":"2YP3","graph":"triangular","internal_node_id":"0.0-7.0-0.0","q":16,"rt":36420,"session":"mike","subject":"3A2HT","time_elapsed":737124,"trial_index":20,"trial_type":"html","url":"../views/src/external/stimulus.html"},{"_id":{"$oid":"6180b600732570cf33cf5496"},"answer":"For the lines going right slanting right, the events that start at 12 PM will begin at 12 PM on the x-axis and then move upwards, like with the letters M and L","block":"triangular_testing","condition":"114","experiment":"2YP3","graph":"triangular","internal_node_id":"0.0-7.0-0.0","q":16,"rt":39185,"session":"november","subject":"DFQLY","time_elapsed":724679,"trial_index":20,"trial_type":"html","url":"../views/src/external/stimulus.html"},{"_id":{"$oid":"6180b600732570cf33cf54ae"},"answer":"Look at which events are on the y axis corresponds to the 12pm x axis value.","block":"triangular_testing","condition":"114","experiment":"2YP3","graph":"triangular","internal_node_id":"0.0-7.0-0.0","q":16,"rt":45866,"session":"november","subject":"4P01U","time_elapsed":521721,"trial_index":20,"trial_type":"html","url":"../views/src/external/stimulus.html"},{"_id":{"$oid":"6180b600732570cf33cf54c6"},"answer":"I SEE WHICH POINTS HAVE 12 PM AS THEIR X COORDINATE\n","block":"triangular_testing","condition":"114","experiment":"2YP3","graph":"triangular","internal_node_id":"0.0-7.0-0.0","q":16,"rt":32382,"session":"november","subject":"K8DJ0","time_elapsed":495070,"trial_index":20,"trial_type":"html","url":"../views/src/external/stimulus.html"},{"_id":{"$oid":"6180b600732570cf33cf54de"},"answer":"Look at the x-axis and fine where it says 12pm. When located, all the values in that column start at 12pm","block":"triangular_testing","condition":"114","experiment":"2YP3","graph":"triangular","internal_node_id":"0.0-7.0-0.0","q":16,"rt":35627,"session":"november","subject":"CKU4L","time_elapsed":725424,"trial_index":20,"trial_type":"html","url":"../views/src/external/stimulus.html"},{"_id":{"$oid":"6180b600732570cf33cf54f6"},"answer":"Look for data points along the y-axis that align with 12 PM on the x-axis.","block":"triangular_testing","condition":"114","experiment":"2YP3","graph":"triangular","internal_node_id":"0.0-7.0-0.0","q":16,"rt":70704,"session":"november","subject":"PLKGC","time_elapsed":619638,"trial_index":20,"trial_type":"html","url":"../views/src/external/stimulus.html"},{"_id":{"$oid":"6180b600732570cf33cf550e"},"answer":"Beginning of F and B's shift.\nEnd of J's shift. ","block":"triangular_testing","condition":"114","experiment":"2YP3","graph":"triangular","internal_node_id":"0.0-7.0-0.0","q":16,"rt":42711,"session":"november","subject":"5ZEGW","time_elapsed":660783,"trial_index":20,"trial_type":"html","url":"../views/src/external/stimulus.html"},{"_id":{"$oid":"6180b600732570cf33cf5526"},"answer":"To determine which events start at 12pm, follow the line leaning towards the right starting at 12pm on the x-axis.","block":"triangular_testing","condition":"114","experiment":"2YP3","graph":"triangular","internal_node_id":"0.0-7.0-0.0","q":16,"rt":69332,"session":"november","subject":"B1Q98","time_elapsed":669422,"trial_index":20,"trial_type":"html","url":"../views/src/external/stimulus.html"},{"_id":{"$oid":"6180b600732570cf33cf553e"},"answer":"go towards the bottom of chart find 12pm and look any dot on 12pm\n","block":"triangular_testing","condition":"114","experiment":"2YP3","graph":"triangular","internal_node_id":"0.0-7.0-0.0","q":16,"rt":70266,"session":"november","subject":"55GO7","time_elapsed":690672,"trial_index":20,"trial_type":"html","url":"../views/src/external/stimulus.html"},{"_id":{"$oid":"6180b600732570cf33cf5556"},"answer":"The x axis says that shifts for b and f start","block":"triangular_testing","condition":"114","experiment":"2YP3","graph":"triangular","internal_node_id":"0.0-7.0-0.0","q":16,"rt":41088,"session":"november","subject":"FK2HU","time_elapsed":736330,"trial_index":20,"trial_type":"html","url":"../views/src/external/stimulus.html"},{"_id":{"$oid":"6180b600732570cf33cf556e"},"answer":"An event starts at 12pm when there is a point above the number 12 on the x-axis.","block":"triangular_testing","condition":"115","experiment":"2YP3","graph":"triangular","internal_node_id":"0.0-7.0-0.0","q":16,"rt":155952,"session":"mike","subject":"BF0KE","time_elapsed":2133615,"trial_index":20,"trial_type":"html","url":"../views/src/external/stimulus.html"},{"_id":{"$oid":"6180b600732570cf33cf5586"},"answer":"Look at the x axis of start and end times. Go to 12PM and look straight up that line for the letter of the shift","block":"triangular_testing","condition":"114","experiment":"2YP3","graph":"triangular","internal_node_id":"0.0-7.0-0.0","q":16,"rt":45760,"session":"november","subject":"53R9B","time_elapsed":1252124,"trial_index":20,"trial_type":"html","url":"../views/src/external/stimulus.html"},{"_id":{"$oid":"6180b600732570cf33cf559e"},"answer":"FOLLOW THE / LINE STARTING AT 12PM","block":"triangular_testing","condition":"114","experiment":"2YP3","graph":"triangular","internal_node_id":"0.0-7.0-0.0","q":16,"rt":30845,"session":"november","subject":"C78PK","time_elapsed":417899,"trial_index":20,"trial_type":"html","url":"../views/src/external/stimulus.html"},{"_id":{"$oid":"6180b600732570cf33cf55b6"},"answer":"Looking at the x - axis ","block":"triangular_testing","condition":"114","experiment":"2YP3","graph":"triangular","internal_node_id":"0.0-7.0-0.0","q":16,"rt":66944,"session":"november","subject":"VB9NP","time_elapsed":844139,"trial_index":20,"trial_type":"html","url":"../views/src/external/stimulus.html"},{"_id":{"$oid":"6180b600732570cf33cf55ce"},"answer":"you go to 12 pm on the x-axis and then go directly vertical from that position. Whatever points fall on that line start at 12 pm.","block":"triangular_testing","condition":"114","experiment":"2YP3","graph":"triangular","internal_node_id":"0.0-7.0-0.0","q":16,"rt":55070,"session":"november","subject":"TPGMW","time_elapsed":783022,"trial_index":20,"trial_type":"html","url":"../views/src/external/stimulus.html"},{"_id":{"$oid":"6180b600732570cf33cf55e6"},"answer":"You look at the x-axis and find the point on it labeled \"12pm\". Then, you look at all the points on the graph that are directly above that 12pm label. ","block":"triangular_testing","condition":"114","experiment":"2YP3","graph":"triangular","internal_node_id":"0.0-7.0-0.0","q":16,"rt":57753,"session":"november","subject":"KYY96","time_elapsed":787309,"trial_index":20,"trial_type":"html","url":"../views/src/external/stimulus.html"},{"_id":{"$oid":"6180b600732570cf33cf55fe"},"answer":"Find the 12PM mark on the x axis and then move directly up to find the dots that are right above this point.","block":"triangular_testing","condition":"114","experiment":"2YP3","graph":"triangular","internal_node_id":"0.0-7.0-0.0","q":16,"rt":51142,"session":"november","subject":"YFWR3","time_elapsed":896998,"trial_index":20,"trial_type":"html","url":"../views/src/external/stimulus.html"},{"_id":{"$oid":"6180b600732570cf33cf5616"},"answer":"You go to the x axis and look for where it says 12 pm, then you go up the y axis from the starting point of 12 pm and see which dots fall in that line going up.","block":"triangular_testing","condition":"114","experiment":"2YP3","graph":"triangular","internal_node_id":"0.0-7.0-0.0","q":16,"rt":70550,"session":"november","subject":"UV5LD","time_elapsed":1292813,"trial_index":20,"trial_type":"html","url":"../views/src/external/stimulus.html"},{"_id":{"$oid":"6180b600732570cf33cf562e"},"answer":"X-Axis represents time of day. The dots represent the start of the shift.\nSo only the X-axis matters in finding 12pm start.","block":"triangular_testing","condition":"114","experiment":"2YP3","graph":"triangular","internal_node_id":"0.0-7.0-0.0","q":16,"rt":84864,"session":"november","subject":"ESMO3","time_elapsed":1323346,"trial_index":20,"trial_type":"html","url":"../views/src/external/stimulus.html"},{"_id":{"$oid":"6180b600732570cf33cf5646"},"answer":"Follow the line going diagonally up/right from the 12pm. Any point that passes through this line is an event that begins at 12pm.","block":"triangular_testing","condition":"114","experiment":"2YP3","graph":"triangular","internal_node_id":"0.0-7.0-0.0","q":16,"rt":62464,"session":"november","subject":"2WQ0M","time_elapsed":731399,"trial_index":20,"trial_type":"html","url":"../views/src/external/stimulus.html"},{"_id":{"$oid":"6180b600732570cf33cf565e"},"answer":"First indicate the 12pm slot on the x-axis and trace the right-most diagonal connected to this slot up until you find points of intersection. ","block":"triangular_testing","condition":"121","experiment":"2YP3","graph":"triangular","internal_node_id":"0.0-7.0-0.0","q":16,"rt":47921,"session":"strategy-satisficing","subject":"G72GB","time_elapsed":2242091,"trial_index":20,"trial_type":"html","url":"../views/src/external/stimulus.html"},{"_id":{"$oid":"6180b600732570cf33cf5676"},"answer":"The events that start at 12 PM will fall on a straight, upward line protruding from the 12 PM spot on the x-axis.","block":"triangular_testing","condition":"111","experiment":"2YP3","graph":"triangular","internal_node_id":"0.0-7.0-0.0","q":16,"rt":74211,"session":"alpha","subject":"UQWX4","time_elapsed":772952,"trial_index":20,"trial_type":"html","url":"../views/src/external/stimulus.html"},{"_id":{"$oid":"6180b600732570cf33cf568e"},"answer":"Follow the diagonal line up from the 12pm slot","block":"triangular_testing","condition":"121","experiment":"2YP3","graph":"triangular","internal_node_id":"0.0-7.0-0.0","q":16,"rt":15949,"session":"strategy-connecting","subject":"8MVD2","time_elapsed":1222396,"trial_index":20,"trial_type":"html","url":"../views/src/external/stimulus.html"},{"_id":{"$oid":"6180b600732570cf33cf56a6"},"answer":"Look at the x-axis(which is for start & end times), and then follow the time up vertically to see which letters start at a given time. In this case, B and F start at 12","block":"triangular_testing","condition":"111","experiment":"2YP3","graph":"triangular","internal_node_id":"0.0-7.0-0.0","q":16,"rt":86637,"session":"alpha","subject":"4RGO3","time_elapsed":1216969,"trial_index":20,"trial_type":"html","url":"../views/src/external/stimulus.html"},{"_id":{"$oid":"6180b600732570cf33cf56d6"},"answer":"LOOK AT THE X-AXIS FOR 12 pm AND GO UP THE GRAPH","block":"triangular_testing","condition":"111","experiment":"2YP3","graph":"triangular","internal_node_id":"0.0-7.0-0.0","q":16,"rt":30693,"session":"alpha","subject":"Z5Z7P","time_elapsed":982198,"trial_index":20,"trial_type":"html","url":"../views/src/external/stimulus.html"},{"_id":{"$oid":"6180b600732570cf33cf56ee"},"answer":"any dots that are placed before 12pm ","block":"triangular_testing","condition":"121","experiment":"2YP3","graph":"triangular","internal_node_id":"0.0-7.0-0.0","q":16,"rt":35646,"session":"bravo","subject":"YE3VQ","time_elapsed":631069,"trial_index":20,"trial_type":"html","url":"../views/src/external/stimulus.html"},{"_id":{"$oid":"6180b600732570cf33cf5706"},"answer":"First find 12pm on the x-axis and then go up from the 12pm point and find any dots that represent events. ","block":"triangular_testing","condition":"121","experiment":"2YP3","graph":"triangular","internal_node_id":"0.0-7.0-0.0","q":16,"rt":145011,"session":"bravo","subject":"DKL3R","time_elapsed":731703,"trial_index":20,"trial_type":"html","url":"../views/src/external/stimulus.html"},{"_id":{"$oid":"6180b600732570cf33cf5736"},"answer":"Look at the x-axis (start and end time) and then look up the graph","block":"triangular_testing","condition":"111","experiment":"2YP3","graph":"triangular","internal_node_id":"0.0-7.0-0.0","q":16,"rt":25947,"session":"alpha","subject":"781AU","time_elapsed":991689,"trial_index":20,"trial_type":"html","url":"../views/src/external/stimulus.html"},{"_id":{"$oid":"6180b600732570cf33cf574e"},"answer":"shifts on the line that start at 12 and goes upper right direction","block":"triangular_testing","condition":"111","experiment":"2YP3","graph":"triangular","internal_node_id":"0.0-7.0-0.0","q":16,"rt":124841,"session":"charlie","subject":"CC7G0","time_elapsed":659815,"trial_index":20,"trial_type":"html","url":"../views/src/external/stimulus.html"},{"_id":{"$oid":"6180b600732570cf33cf5766"},"answer":"There are two diagonal lines leading away from 12PM. The one towards the left means any events ending at 12pm, and one towards the right is any events starting at 12pm. You can follow the right line to see that M and L both start at 12pm, since they are both on this line.","block":"triangular_testing","condition":"111","experiment":"2YP3","graph":"triangular","internal_node_id":"0.0-7.0-0.0","q":16,"rt":132503,"session":"charlie","subject":"A9CZD","time_elapsed":708237,"trial_index":20,"trial_type":"html","url":"../views/src/external/stimulus.html"},{"_id":{"$oid":"6180b600732570cf33cf577e"},"answer":"F and B begin there shift.","block":"triangular_testing","condition":"121","experiment":"2YP3","graph":"triangular","internal_node_id":"0.0-7.0-0.0","q":16,"rt":37057,"session":"bravo","subject":"DOQRP","time_elapsed":552439,"trial_index":20,"trial_type":"html","url":"../views/src/external/stimulus.html"},{"_id":{"$oid":"6180b600732570cf33cf5796"},"answer":"you look at the time on the bottom and then look at what dots are on that line","block":"triangular_testing","condition":"111","experiment":"2YP3","graph":"triangular","internal_node_id":"0.0-7.0-0.0","q":16,"rt":21600,"session":"charlie","subject":"Q8EDD","time_elapsed":726315,"trial_index":20,"trial_type":"html","url":"../views/src/external/stimulus.html"},{"_id":{"$oid":"6180b600732570cf33cf57ae"},"answer":"I look at the x-axis for \"START & END TIME (time of day)\" and search for 12PM. Then I scan vertically up to see which shift(s) is/are directly on that 12 PM line.","block":"triangular_testing","condition":"121","experiment":"2YP3","graph":"triangular","internal_node_id":"0.0-7.0-0.0","q":16,"rt":105686,"session":"bravo","subject":"RGJZL","time_elapsed":885467,"trial_index":20,"trial_type":"html","url":"../views/src/external/stimulus.html"},{"_id":{"$oid":"6180b600732570cf33cf57c6"},"answer":"Find the point of 12 PM at x axis, and the line that begins at this point and positive ","block":"triangular_testing","condition":"111","experiment":"2YP3","graph":"triangular","internal_node_id":"0.0-7.0-0.0","q":16,"rt":130506,"session":"charlie","subject":"W7EBS","time_elapsed":768554,"trial_index":20,"trial_type":"html","url":"../views/src/external/stimulus.html"},{"_id":{"$oid":"6180b600732570cf33cf57de"},"answer":"lOOK AT THE X-AXIS FOR 12 PM AND SEE THE DOTS THAT MATCH UP WITH IT.","block":"triangular_testing","condition":"111","experiment":"2YP3","graph":"triangular","internal_node_id":"0.0-7.0-0.0","q":16,"rt":20801,"session":"charlie","subject":"EGP0T","time_elapsed":654089,"trial_index":20,"trial_type":"html","url":"../views/src/external/stimulus.html"},{"_id":{"$oid":"6180b600732570cf33cf57f6"},"answer":"Read the x axis, indicated start and end time. Upon reaching the 12 pm marker, read vertically upward. The dots that fall on this line are those starting at 12 pm. They end at a time indicated by the y axis, which reads duration (in hours).","block":"triangular_testing","condition":"111","experiment":"2YP3","graph":"triangular","internal_node_id":"0.0-7.0-0.0","q":16,"rt":121326,"session":"charlie","subject":"CK5DF","time_elapsed":725627,"trial_index":20,"trial_type":"html","url":"../views/src/external/stimulus.html"},{"_id":{"$oid":"6180b600732570cf33cf580e"},"answer":"find 12pm on the x axis and see which plot points are above it","block":"triangular_testing","condition":"111","experiment":"2YP3","graph":"triangular","internal_node_id":"0.0-7.0-0.0","q":16,"rt":35578,"session":"charlie","subject":"9BBMD","time_elapsed":637627,"trial_index":20,"trial_type":"html","url":"../views/src/external/stimulus.html"},{"_id":{"$oid":"6180b600732570cf33cf5826"},"answer":"look up 12 on the x axis and then follow from that point up the y axis.","block":"triangular_testing","condition":"111","experiment":"2YP3","graph":"triangular","internal_node_id":"0.0-7.0-0.0","q":16,"rt":64487,"session":"charlie","subject":"UX4QZ","time_elapsed":864473,"trial_index":20,"trial_type":"html","url":"../views/src/external/stimulus.html"},{"_id":{"$oid":"6180b600732570cf33cf583e"},"answer":"Any event that is on a positive sloped line intersecting 12pm or any event whose x-coordinate shifted to the left by their (y-coordinate divided by 2) is 12pm. ","block":"triangular_testing","condition":"111","experiment":"2YP3","graph":"triangular","internal_node_id":"0.0-7.0-0.0","q":16,"rt":157147,"session":"charlie","subject":"GQ35Z","time_elapsed":760792,"trial_index":20,"trial_type":"html","url":"../views/src/external/stimulus.html"},{"_id":{"$oid":"6180b600732570cf33cf5856"},"answer":"Start at 12 PM on the horizontal axis, and then follow the line angled toward the right. ","block":"triangular_testing","condition":"111","experiment":"2YP3","graph":"triangular","internal_node_id":"0.0-7.0-0.0","q":16,"rt":61980,"session":"charlie","subject":"WKBNA","time_elapsed":852278,"trial_index":20,"trial_type":"html","url":"../views/src/external/stimulus.html"},{"_id":{"$oid":"6180b600732570cf33cf586e"},"answer":"Start at 12 from the bottom of the graph (x-axis) and follow the line that goes up and towards the right.","block":"triangular_testing","condition":"111","experiment":"2YP3","graph":"triangular","internal_node_id":"0.0-7.0-0.0","q":16,"rt":59183,"session":"charlie","subject":"F3GZE","time_elapsed":860194,"trial_index":20,"trial_type":"html","url":"../views/src/external/stimulus.html"},{"_id":{"$oid":"6180b600732570cf33cf5886"},"answer":"By looking at the X axis of the graph","block":"triangular_testing","condition":"111","experiment":"2YP3","graph":"triangular","internal_node_id":"0.0-7.0-0.0","q":16,"rt":25359,"session":"charlie","subject":"X9PTQ","time_elapsed":913338,"trial_index":20,"trial_type":"html","url":"../views/src/external/stimulus.html"},{"_id":{"$oid":"6180b600732570cf33cf589e"},"answer":"Follow the lines coming from 12 and get M and L. ","block":"triangular_testing","condition":"121","experiment":"2YP3","graph":"triangular","internal_node_id":"0.0-7.0-0.0","q":16,"rt":21527,"session":"strategy-connecting","subject":"WQKT9","time_elapsed":414034,"trial_index":20,"trial_type":"html","url":"../views/src/external/stimulus.html"},{"_id":{"$oid":"6180b600732570cf33cf58b6"},"answer":"Go up, then choose the points that above twelve pm. ","block":"triangular_testing","condition":"121","experiment":"2YP3","graph":"triangular","internal_node_id":"0.0-7.0-0.0","q":16,"rt":88423,"session":"strategy-satisficing","subject":"ZYASS","time_elapsed":1538876,"trial_index":20,"trial_type":"html","url":"../views/src/external/stimulus.html"},{"_id":{"$oid":"6180b600732570cf33cf58ce"},"answer":"Look at where 12 pm is and the events lined up along that vertical axis start at 12 pm","block":"triangular_testing","condition":"113","experiment":"2YP3","graph":"triangular","internal_node_id":"0.0-7.0-0.0","q":16,"rt":45557,"session":"delta","subject":"5GELG","time_elapsed":838729,"trial_index":20,"trial_type":"html","url":"../views/src/external/stimulus.html"},{"_id":{"$oid":"6180b600732570cf33cf58e6"},"answer":"Look at the x-axis and then look at the point; the x-coordinate of the point. For example, look at 12 pm on the x-axis and then follow it straight up and once you reach the points those points start at 12 pm. So for 12 pm it would be shifts B and F.","block":"triangular_testing","condition":"113","experiment":"2YP3","graph":"triangular","internal_node_id":"0.0-7.0-0.0","q":16,"rt":89710,"session":"delta","subject":"FJV2A","time_elapsed":804068,"trial_index":20,"trial_type":"html","url":"../views/src/external/stimulus.html"},{"_id":{"$oid":"6180b600732570cf33cf58fe"},"answer":"I would look along the x- axis until i see 12pm. Then I look up the y-axis to see which shift would begin at that time.","block":"triangular_testing","condition":"111","experiment":"2YP3","graph":"triangular","internal_node_id":"0.0-7.0-0.0","q":16,"rt":57212,"session":"charlie","subject":"J1JP6","time_elapsed":1330634,"trial_index":20,"trial_type":"html","url":"../views/src/external/stimulus.html"},{"_id":{"$oid":"6180b600732570cf33cf5916"},"answer":"You determine what events start at 12 pm by looking at whether there is a black dot there, which signifies that someone started a shift at that time, or you trace the duration of hours along with the black dots at different hours to see if someone is supposed to have a break there.","block":"triangular_testing","condition":"113","experiment":"2YP3","graph":"triangular","internal_node_id":"0.0-7.0-0.0","q":16,"rt":132808,"session":"delta","subject":"ELUPZ","time_elapsed":1026446,"trial_index":20,"trial_type":"html","url":"../views/src/external/stimulus.html"},{"_id":{"$oid":"6180b600732570cf33cf592e"},"answer":"took me a few questions to figure out, but the left corner of the equilateral triangle (positioning the letter at the top) is where the time starts and the right corner is where the time ends. So I figure out what triangles' lower corner is positioned at 12pm","block":"triangular_testing","condition":"121","experiment":"2YP3","graph":"triangular","internal_node_id":"0.0-7.0-0.0","q":16,"rt":87280,"session":"echo","subject":"38NFJ","time_elapsed":552600,"trial_index":20,"trial_type":"html","url":"../views/src/external/stimulus.html"},{"_id":{"$oid":"6180b600732570cf33cf5946"},"answer":"An event's start time is shown by the diagonal connection down to the left side at the data point 12PM on the time of day axis.  ","block":"triangular_testing","condition":"121","experiment":"2YP3","graph":"triangular","internal_node_id":"0.0-7.0-0.0","q":16,"rt":58525,"session":"echo","subject":"QGQ61","time_elapsed":989894,"trial_index":20,"trial_type":"html","url":"../views/src/external/stimulus.html"},{"_id":{"$oid":"6180b600732570cf33cf595e"},"answer":"look at the x axis until you hit 12pm and then look up at the dots that lie on it","block":"triangular_testing","condition":"121","experiment":"2YP3","graph":"triangular","internal_node_id":"0.0-7.0-0.0","q":16,"rt":44715,"session":"echo","subject":"R06S6","time_elapsed":615605,"trial_index":20,"trial_type":"html","url":"../views/src/external/stimulus.html"},{"_id":{"$oid":"6180b600732570cf33cf5976"},"answer":"on the x axis go to 12 pm and move upwards until reaching a letter indicating an event that is happening at 12pm","block":"triangular_testing","condition":"121","experiment":"2YP3","graph":"triangular","internal_node_id":"0.0-7.0-0.0","q":16,"rt":30031,"session":"echo","subject":"808YR","time_elapsed":856325,"trial_index":20,"trial_type":"html","url":"../views/src/external/stimulus.html"},{"_id":{"$oid":"6180b600732570cf33cf598e"},"answer":"Must in the line for 12 and Duration less than four","block":"triangular_testing","condition":"121","experiment":"2YP3","graph":"triangular","internal_node_id":"0.0-7.0-0.0","q":16,"rt":47573,"session":"echo","subject":"VSHHA","time_elapsed":888431,"trial_index":20,"trial_type":"html","url":"../views/src/external/stimulus.html"},{"_id":{"$oid":"6180b600732570cf33cf59be"},"answer":"The left side of the line hits the 12 Pm point on the x axis","block":"triangular_testing","condition":"121","experiment":"2YP3","graph":"triangular","internal_node_id":"0.0-7.0-0.0","q":16,"rt":18938,"session":"go1f","subject":"H2N27","time_elapsed":360666,"trial_index":20,"trial_type":"html","url":"../views/src/external/stimulus.html"},{"_id":{"$oid":"6180b600732570cf33cf59d6"},"answer":"By looking at the x axis and seeing which point coincides with the time 12pm","block":"triangular_testing","condition":"111","experiment":"2YP3","graph":"triangular","internal_node_id":"0.0-7.0-0.0","q":16,"rt":53285,"session":"foxtrot","subject":"6Y93F","time_elapsed":1072340,"trial_index":20,"trial_type":"html","url":"../views/src/external/stimulus.html"},{"_id":{"$oid":"6180b600732570cf33cf59ee"},"answer":"You go to 12 p.m. on the x-axis, and then follow the right diagonal line until you see a letter(shift). In this case, it'd be M and L.","block":"triangular_testing","condition":"121","experiment":"2YP3","graph":"triangular","internal_node_id":"0.0-7.0-0.0","q":16,"rt":75306,"session":"golf","subject":"H1RGT","time_elapsed":551093,"trial_index":20,"trial_type":"html","url":"../views/src/external/stimulus.html"},{"_id":{"$oid":"6180b600732570cf33cf5a06"},"answer":"The black dots indicate the start time\n","block":"triangular_testing","condition":"121","experiment":"2YP3","graph":"triangular","internal_node_id":"0.0-7.0-0.0","q":16,"rt":34230,"session":"echo","subject":"MOWH2","time_elapsed":1075899,"trial_index":20,"trial_type":"html","url":"../views/src/external/stimulus.html"},{"_id":{"$oid":"6180b600732570cf33cf5a1e"},"answer":"you start at twelve then follow the right slanted line to M and L all the way up the pyramid\n","block":"triangular_testing","condition":"121","experiment":"2YP3","graph":"triangular","internal_node_id":"0.0-7.0-0.0","q":16,"rt":42708,"session":"echo","subject":"FSWW4","time_elapsed":1142115,"trial_index":20,"trial_type":"html","url":"../views/src/external/stimulus.html"},{"_id":{"$oid":"6180b600732570cf33cf5a36"},"answer":"Which ever shift is diagonally connected to the 12pm on the x-axis","block":"triangular_testing","condition":"121","experiment":"2YP3","graph":"triangular","internal_node_id":"0.0-7.0-0.0","q":16,"rt":38460,"session":"golf","subject":"VT5BG","time_elapsed":670274,"trial_index":20,"trial_type":"html","url":"../views/src/external/stimulus.html"},{"_id":{"$oid":"6180b600732570cf33cf5a4e"},"answer":"I use the mouse to line up where a letter and the time meet on the graph","block":"triangular_testing","condition":"121","experiment":"2YP3","graph":"triangular","internal_node_id":"0.0-7.0-0.0","q":16,"rt":60206,"session":"golf","subject":"39GMD","time_elapsed":727046,"trial_index":20,"trial_type":"html","url":"../views/src/external/stimulus.html"},{"_id":{"$oid":"6180b600732570cf33cf5a66"},"answer":"Tracing the line from 12 pm on the x-axis vertically up to notice B and F\n","block":"triangular_testing","condition":"121","experiment":"2YP3","graph":"triangular","internal_node_id":"0.0-7.0-0.0","q":16,"rt":26371,"session":"hotel","subject":"YP2FK","time_elapsed":670341,"trial_index":20,"trial_type":"html","url":"../views/src/external/stimulus.html"},{"_id":{"$oid":"6180b600732570cf33cf5a7e"},"answer":"You find 12pm on the x-axis and then you see if there are any points that are directly above the 12pm increment to see if any shifts start then. To find out when a break is taking place at 12pm you test one's shift by dividing their duration by 2 and adding that to when they started their shift. If the answer is 12 pm then thats when their break is.","block":"triangular_testing","condition":"121","experiment":"2YP3","graph":"triangular","internal_node_id":"0.0-7.0-0.0","q":16,"rt":139339,"session":"golf","subject":"ZKB08","time_elapsed":902533,"trial_index":20,"trial_type":"html","url":"../views/src/external/stimulus.html"},{"_id":{"$oid":"6180b600732570cf33cf5aae"},"answer":"The lines that come out of 12 pm going to right and up is lines that have a shift start. \nLines going up and to the left are shift ends. ","block":"triangular_testing","condition":"121","experiment":"2YP3","graph":"triangular","internal_node_id":"0.0-7.0-0.0","q":16,"rt":50123,"session":"hotel","subject":"D3LUH","time_elapsed":630380,"trial_index":20,"trial_type":"html","url":"../views/src/external/stimulus.html"},{"_id":{"$oid":"6180b600732570cf33cf5ac6"},"answer":"Events that start at 12p.m are indicated by the black dots, which symbolize beginning time. Simply locate the black dot that is vertical to the time \"12 PM.\" ","block":"triangular_testing","condition":"121","experiment":"2YP3","graph":"triangular","internal_node_id":"0.0-7.0-0.0","q":16,"rt":53098,"session":"golf","subject":"DM4T0","time_elapsed":924413,"trial_index":20,"trial_type":"html","url":"../views/src/external/stimulus.html"},{"_id":{"$oid":"6180b600732570cf33cf5ade"},"answer":"Look at the x axis, and go to the 12pm data value. Then, find the valid corresponding durations for events that start at 12pm","block":"triangular_testing","condition":"121","experiment":"2YP3","graph":"triangular","internal_node_id":"0.0-7.0-0.0","q":16,"rt":68922,"session":"golf","subject":"67NP2","time_elapsed":847520,"trial_index":20,"trial_type":"html","url":"../views/src/external/stimulus.html"},{"_id":{"$oid":"6180b600732570cf33cf5af6"},"answer":"look at the vertical line going up from 12 pm mark on the horizontal axis","block":"triangular_testing","condition":"121","experiment":"2YP3","graph":"triangular","internal_node_id":"0.0-7.0-0.0","q":16,"rt":30869,"session":"hotel","subject":"8LK9M","time_elapsed":666165,"trial_index":20,"trial_type":"html","url":"../views/src/external/stimulus.html"},{"_id":{"$oid":"6180b600732570cf33cf5b0e"},"answer":"Look at the points corresponding to 12 pm from the x-axis.","block":"triangular_testing","condition":"121","experiment":"2YP3","graph":"triangular","internal_node_id":"0.0-7.0-0.0","q":16,"rt":33165,"session":"hotel","subject":"OZV09","time_elapsed":543710,"trial_index":20,"trial_type":"html","url":"../views/src/external/stimulus.html"},{"_id":{"$oid":"6180b600732570cf33cf5b26"},"answer":"From each shift (dot), you look at the triangle that forms under it. The first left line of the triangle tells you the shift start time and the right line of the triangle stemming from the dot tells you the shift end time. So to determine which shifts start at 12pm, you look at the diagonal lines that slant towards the right from the 12 pm tick mark on the graph, indicating the start time. You can follow the right-slanting diagonal line all the way through to see that shifts M and L start at 12 pm.","block":"triangular_testing","condition":"121","experiment":"2YP3","graph":"triangular","internal_node_id":"0.0-7.0-0.0","q":16,"rt":144307,"session":"hotel","subject":"T5SHZ","time_elapsed":986945,"trial_index":20,"trial_type":"html","url":"../views/src/external/stimulus.html"},{"_id":{"$oid":"6180b600732570cf33cf5b3e"},"answer":"First find the point of 12PM on x-axis, then trace the line towards the up-right direction of the 12PM point;the points lie on the line are the events we are looking for, which is M and L.","block":"triangular_testing","condition":"121","experiment":"2YP3","graph":"triangular","internal_node_id":"0.0-7.0-0.0","q":16,"rt":123812,"session":"hotel","subject":"QOJ6L","time_elapsed":924178,"trial_index":20,"trial_type":"html","url":"../views/src/external/stimulus.html"},{"_id":{"$oid":"6180b600732570cf33cf5b56"},"answer":"i was looking vertically up from 12 pm but idk what the hell im doing ","block":"triangular_testing","condition":"115","experiment":"2YP3","graph":"triangular","internal_node_id":"0.0-7.0-0.0","q":16,"rt":40528,"session":"india","subject":"2S99A","time_elapsed":461797,"trial_index":20,"trial_type":"html","url":"../views/src/external/stimulus.html"},{"_id":{"$oid":"6180b600732570cf33cf5b6e"},"answer":"I looked at which parts hard a circle lining up vertically from the 12 o'clock point on the x-axis. I had used the axis to help determine that the beginning times were the dots.","block":"triangular_testing","condition":"121","experiment":"2YP3","graph":"triangular","internal_node_id":"0.0-7.0-0.0","q":16,"rt":61160,"session":"hotel","subject":"AFQCB","time_elapsed":1054486,"trial_index":20,"trial_type":"html","url":"../views/src/external/stimulus.html"},{"_id":{"$oid":"6180b600732570cf33cf5b86"},"answer":"To determine what events start at 12pm you would look at the X-axis labeled start and end time.","block":"triangular_testing","condition":"115","experiment":"2YP3","graph":"triangular","internal_node_id":"0.0-7.0-0.0","q":16,"rt":23146,"session":"india","subject":"CMMGH","time_elapsed":517401,"trial_index":20,"trial_type":"html","url":"../views/src/external/stimulus.html"},{"_id":{"$oid":"6180b600732570cf33cf5bb6"},"answer":"Look at the X-axis and find which points line up vertically with 12 PM","block":"triangular_testing","condition":"115","experiment":"2YP3","graph":"triangular","internal_node_id":"0.0-7.0-0.0","q":16,"rt":52181,"session":"india","subject":"Q3JLW","time_elapsed":773497,"trial_index":20,"trial_type":"html","url":"../views/src/external/stimulus.html"},{"_id":{"$oid":"6180b600732570cf33cf5bce"},"answer":"find the line going out from point 12PM on the x axis and find points on that path.","block":"triangular_testing","condition":"115","experiment":"2YP3","graph":"triangular","internal_node_id":"0.0-7.0-0.0","q":16,"rt":74344,"session":"juliet","subject":"ZY4DY","time_elapsed":764864,"trial_index":20,"trial_type":"html","url":"../views/src/external/stimulus.html"},{"_id":{"$oid":"6180b600732570cf33cf5be6"},"answer":"Go to the 12pm mark on the x-axis, and move along the corresponding grid line that points to the upper right corner. Any events that intercept this line start at 12pm. In this case, it would be M and L. I didn't figure this out until halfway through.","block":"triangular_testing","condition":"115","experiment":"2YP3","graph":"triangular","internal_node_id":"0.0-7.0-0.0","q":16,"rt":112030,"session":"juliet","subject":"OU2PE","time_elapsed":919709,"trial_index":20,"trial_type":"html","url":"../views/src/external/stimulus.html"},{"_id":{"$oid":"6180b600732570cf33cf5bfe"},"answer":"F and B starts their shifts,\nJ ends its shift at 12\n","block":"triangular_testing","condition":"115","experiment":"2YP3","graph":"triangular","internal_node_id":"0.0-7.0-0.0","q":16,"rt":33013,"session":"india","subject":"C30CF","time_elapsed":534107,"trial_index":20,"trial_type":"html","url":"../views/src/external/stimulus.html"},{"_id":{"$oid":"6180b600732570cf33cf5c16"},"answer":"If you see the dot vertically above the 12 pm, then that is the shift that starts at 12 pm\n","block":"triangular_testing","condition":"115","experiment":"2YP3","graph":"triangular","internal_node_id":"0.0-7.0-0.0","q":16,"rt":43585,"session":"juliet","subject":"BEGT5","time_elapsed":835052,"trial_index":20,"trial_type":"html","url":"../views/src/external/stimulus.html"},{"_id":{"$oid":"6180b600732570cf33cf5c2e"},"answer":"Go to the X-axis and find 12pm, take the forward(right) diagonal up to each point on that line. Each of those points denote an event that starts at 12pm.","block":"triangular_testing","condition":"115","experiment":"2YP3","graph":"triangular","internal_node_id":"0.0-7.0-0.0","q":16,"rt":155577,"session":"juliet","subject":"JVUC6","time_elapsed":807553,"trial_index":20,"trial_type":"html","url":"../views/src/external/stimulus.html"},{"_id":{"$oid":"6180b600732570cf33cf5c46"},"answer":"you look at the x axis and the you look at the points that correspond to the 12pm tick by creating an imaginary vertical line","block":"triangular_testing","condition":"115","experiment":"2YP3","graph":"triangular","internal_node_id":"0.0-7.0-0.0","q":16,"rt":40614,"session":"juliet","subject":"2KONX","time_elapsed":651145,"trial_index":20,"trial_type":"html","url":"../views/src/external/stimulus.html"},{"_id":{"$oid":"6180b600732570cf33cf5c76"},"answer":"Follow the diagonal line going from 12pm to the upper right","block":"triangular_testing","condition":"115","experiment":"2YP3","graph":"triangular","internal_node_id":"0.0-7.0-0.0","q":16,"rt":26349,"session":"juliet","subject":"0QG7J","time_elapsed":634498,"trial_index":20,"trial_type":"html","url":"../views/src/external/stimulus.html"},{"_id":{"$oid":"6180b600732570cf33cf5c8e"},"answer":"To determine this I go up vertically to find the points at 12 pm from the x-axis","block":"triangular_testing","condition":"121","experiment":"2YP3","graph":"triangular","internal_node_id":"0.0-7.0-0.0","q":16,"rt":41552,"session":"hotel","subject":"G443Q","time_elapsed":1289655,"trial_index":20,"trial_type":"html","url":"../views/src/external/stimulus.html"},{"_id":{"$oid":"6180b600732570cf33cf5ca6"},"answer":"look at the x-axis for 12pm, and view all the dots that align linearly","block":"triangular_testing","condition":"115","experiment":"2YP3","graph":"triangular","internal_node_id":"0.0-7.0-0.0","q":16,"rt":43479,"session":"juliet","subject":"E5L6P","time_elapsed":828566,"trial_index":20,"trial_type":"html","url":"../views/src/external/stimulus.html"},{"_id":{"$oid":"6180b600732570cf33cf5cbe"},"answer":"look at the x axes, which points is on the 12 pm label position ","block":"triangular_testing","condition":"115","experiment":"2YP3","graph":"triangular","internal_node_id":"0.0-7.0-0.0","q":16,"rt":33814,"session":"juliet","subject":"Q0QHK","time_elapsed":838941,"trial_index":20,"trial_type":"html","url":"../views/src/external/stimulus.html"},{"_id":{"$oid":"6180b600732570cf33cf5cd6"},"answer":"well we look at the start/end time of the day at 12 then go up the y axis to see which letter is on the y axis of 12 pm","block":"triangular_testing","condition":"115","experiment":"2YP3","graph":"triangular","internal_node_id":"0.0-7.0-0.0","q":16,"rt":69405,"session":"juliet","subject":"2LZ7W","time_elapsed":1074418,"trial_index":20,"trial_type":"html","url":"../views/src/external/stimulus.html"},{"_id":{"$oid":"6180b600732570cf33cf5cee"},"answer":"I look for the dot that lines up with 12pm to indicate that's when a shift starts. I also count back how many hours from dots passed 12pm to see if they also start at 12pm.","block":"triangular_testing","condition":"115","experiment":"2YP3","graph":"triangular","internal_node_id":"0.0-7.0-0.0","q":16,"rt":52163,"session":"juliet","subject":"PRRKJ","time_elapsed":1182964,"trial_index":20,"trial_type":"html","url":"../views/src/external/stimulus.html"},{"_id":{"$oid":"6180b600732570cf33cf5d06"},"answer":"it is indicated on the horizontal axis\n","block":"triangular_testing","condition":"114","experiment":"2YP3","graph":"triangular","internal_node_id":"0.0-7.0-0.0","q":16,"rt":37462,"session":"oscar","subject":"53WYU","time_elapsed":516685,"trial_index":20,"trial_type":"html","url":"../views/src/external/stimulus.html"},{"_id":{"$oid":"6180b600732570cf33cf5d1e"},"answer":"Find 12pm on the x-axis and then find the shift on the graph that has an x-coordinate of 12pm","block":"triangular_testing","condition":"114","experiment":"2YP3","graph":"triangular","internal_node_id":"0.0-7.0-0.0","q":16,"rt":36506,"session":"oscar","subject":"FR69M","time_elapsed":729540,"trial_index":20,"trial_type":"html","url":"../views/src/external/stimulus.html"},{"_id":{"$oid":"6180b600732570cf33cf5d36"},"answer":"Looking at the x axis and the y axis. ","block":"triangular_testing","condition":"114","experiment":"2YP3","graph":"triangular","internal_node_id":"0.0-7.0-0.0","q":16,"rt":15863,"session":"oscar","subject":"AZKMW","time_elapsed":636477,"trial_index":20,"trial_type":"html","url":"../views/src/external/stimulus.html"},{"_id":{"$oid":"6180b600732570cf33cf5d66"},"answer":"Look at dots above 12pm\n","block":"triangular_testing","condition":"114","experiment":"2YP3","graph":"triangular","internal_node_id":"0.0-7.0-0.0","q":16,"rt":24404,"session":"oscar","subject":"K7JVY","time_elapsed":596049,"trial_index":20,"trial_type":"html","url":"../views/src/external/stimulus.html"},{"_id":{"$oid":"6180b600732570cf33cf5d7e"},"answer":"Follow the line that goes in a positive slope from the x axis where it says 12pm. So in this case it would be M and L.","block":"triangular_testing","condition":"114","experiment":"2YP3","graph":"triangular","internal_node_id":"0.0-7.0-0.0","q":16,"rt":61932,"session":"oscar","subject":"FUXZY","time_elapsed":700674,"trial_index":20,"trial_type":"html","url":"../views/src/external/stimulus.html"},{"_id":{"$oid":"6180b600732570cf33cf5d96"},"answer":"You follow the x axis to 12pm and then you go straight up the y axis from that 12pm point and if there is a dot along the y axis that corresponds to the 12pm on the x-axis, that shift starts at 12pm","block":"triangular_testing","condition":"114","experiment":"2YP3","graph":"triangular","internal_node_id":"0.0-7.0-0.0","q":16,"rt":96009,"session":"oscar","subject":"8GUB2","time_elapsed":725212,"trial_index":20,"trial_type":"html","url":"../views/src/external/stimulus.html"},{"_id":{"$oid":"6180b600732570cf33cf5dae"},"answer":"You check the x- axis and see which one correlates to the 12 pm time, whic his f and b","block":"triangular_testing","condition":"114","experiment":"2YP3","graph":"triangular","internal_node_id":"0.0-7.0-0.0","q":16,"rt":34280,"session":"papa","subject":"MD6NK","time_elapsed":736838,"trial_index":20,"trial_type":"html","url":"../views/src/external/stimulus.html"},{"_id":{"$oid":"6180b600732570cf33cf5dde"},"answer":"you take 12pm on the X-axis and then go up along the vertical line to see which points lie on that line.","block":"triangular_testing","condition":"114","experiment":"2YP3","graph":"triangular","internal_node_id":"0.0-7.0-0.0","q":16,"rt":48725,"session":"oscar","subject":"RRF03","time_elapsed":821327,"trial_index":20,"trial_type":"html","url":"../views/src/external/stimulus.html"},{"_id":{"$oid":"6180b600732570cf33cf5df6"},"answer":"Which ever dots are aligned vertically with the 12pm marker on the horizontal axis\n","block":"triangular_testing","condition":"114","experiment":"2YP3","graph":"triangular","internal_node_id":"0.0-7.0-0.0","q":16,"rt":80406,"session":"oscar","subject":"TGOML","time_elapsed":922573,"trial_index":20,"trial_type":"html","url":"../views/src/external/stimulus.html"},{"_id":{"$oid":"6180b600732570cf33cf5e0e"},"answer":"by looking at the x axis you see above 12pm which events tart at that time ","block":"triangular_testing","condition":"114","experiment":"2YP3","graph":"triangular","internal_node_id":"0.0-7.0-0.0","q":16,"rt":43653,"session":"oscar","subject":"1N858","time_elapsed":480102,"trial_index":20,"trial_type":"html","url":"../views/src/external/stimulus.html"},{"_id":{"$oid":"6180b600732570cf33cf5e26"},"answer":"The point where the letter is on the graph is the start time, the end time is determined by the y-axis/duration. So, go to the 12pm tick mark on the axis and go up.","block":"triangular_testing","condition":"114","experiment":"2YP3","graph":"triangular","internal_node_id":"0.0-7.0-0.0","q":16,"rt":63423,"session":"papa","subject":"Y9NLY","time_elapsed":789950,"trial_index":20,"trial_type":"html","url":"../views/src/external/stimulus.html"},{"_id":{"$oid":"6180b600732570cf33cf5e3e"},"answer":"Look at the x-axis for 12pm. Any dots in that column begin at 12p","block":"triangular_testing","condition":"115","experiment":"2YP3","graph":"triangular","internal_node_id":"0.0-7.0-0.0","q":16,"rt":26568,"session":"quebec","subject":"EPDQP","time_elapsed":890267,"trial_index":20,"trial_type":"html","url":"../views/src/external/stimulus.html"},{"_id":{"$oid":"6180b600732570cf33cf5e56"},"answer":"Shifts B and F start at 12pm","block":"triangular_testing","condition":"115","experiment":"2YP3","graph":"triangular","internal_node_id":"0.0-7.0-0.0","q":16,"rt":26645,"session":"romeo","subject":"F92ER","time_elapsed":569154,"trial_index":20,"trial_type":"html","url":"../views/src/external/stimulus.html"},{"_id":{"$oid":"6180b600732570cf33cf5e6e"},"answer":"To determine which event starts at 12pm, look for 12pm on the x axis and then trace it vertically according to the diagram. This should tell you that at 12pm, shifts F and B fall on the same spots on the diagram, therefore showing that both shifts start at 12pm. ","block":"triangular_testing","condition":"114","experiment":"2YP3","graph":"triangular","internal_node_id":"0.0-7.0-0.0","q":16,"rt":104984,"session":"papa","subject":"0YZ27","time_elapsed":1372742,"trial_index":20,"trial_type":"html","url":"../views/src/external/stimulus.html"},{"_id":{"$oid":"6180b600732570cf33cf5e86"},"answer":"Look in the x axis for 12pm then every entry above start at 12pm","block":"triangular_testing","condition":"115","experiment":"2YP3","graph":"triangular","internal_node_id":"0.0-7.0-0.0","q":16,"rt":35821,"session":"romeo","subject":"8TCFP","time_elapsed":418197,"trial_index":20,"trial_type":"html","url":"../views/src/external/stimulus.html"},{"_id":{"$oid":"6180b600732570cf33cf5e9e"},"answer":"Looking at the x-axis, you find the label saying 12 pm. Then, you simply see which events align with the 12 pm marker. In this case, it would be events F and B.","block":"triangular_testing","condition":"114\n114","experiment":"2YP3","graph":"triangular","internal_node_id":"0.0-7.0-0.0","q":16,"rt":113715,"session":"papa","subject":"BWVFU","time_elapsed":844416,"trial_index":20,"trial_type":"html","url":"../views/src/external/stimulus.html"},{"_id":{"$oid":"6180b600732570cf33cf5eb6"},"answer":"The events at 12 pm can be determined by the x and y axis, along with the plotted points. The points that are directly above the 12 pm mark on the x axis are the events that start at 12 pm.","block":"triangular_testing","condition":"114","experiment":"2YP3","graph":"triangular","internal_node_id":"0.0-7.0-0.0","q":16,"rt":123519,"session":"papa","subject":"NVKL3","time_elapsed":996902,"trial_index":20,"trial_type":"html","url":"../views/src/external/stimulus.html"},{"_id":{"$oid":"6180b600732570cf33cf5ece"},"answer":"I look at the x-axis and find the 12PM time slot, then I look up to see which letters are directly above the 12 pm line.","block":"triangular_testing","condition":"114","experiment":"2YP3","graph":"triangular","internal_node_id":"0.0-7.0-0.0","q":16,"rt":69872,"session":"papa","subject":"G8P43","time_elapsed":900074,"trial_index":20,"trial_type":"html","url":"../views/src/external/stimulus.html"},{"_id":{"$oid":"6180b600732570cf33cf5efe"},"answer":"Each shift starts at 8am to 8pm and we look at the start and end time, specifically at 12. We noticed that B and F are lined up, making them the start","block":"triangular_testing","condition":"113","experiment":"2YP3","graph":"triangular","internal_node_id":"0.0-7.0-0.0","q":16,"rt":72762,"session":"tango","subject":"93XU7","time_elapsed":646877,"trial_index":20,"trial_type":"html","url":"../views/src/external/stimulus.html"},{"_id":{"$oid":"6180b600732570cf33cf5f16"},"answer":"If its point on the graph is after 12pm and the sum of the duration and at time at which it starts is before or on 8pm","block":"triangular_testing","condition":"115","experiment":"2YP3","graph":"triangular","internal_node_id":"0.0-7.0-0.0","q":16,"rt":55166,"session":"romeo","subject":"XD9UF","time_elapsed":744239,"trial_index":20,"trial_type":"html","url":"../views/src/external/stimulus.html"},{"_id":{"$oid":"6180b600732570cf33cf5f46"},"answer":"The vertical axis is the time duration and each point corresponds to 2 points on the horizontal axis, indicating the start and the end time (left-start; right-end). So for events starting at 12pm, I check the line going to North-east from 12pm and find M and L","block":"triangular_testing","condition":"114","experiment":"2YP3","graph":"triangular","internal_node_id":"0.0-7.0-0.0","q":16,"rt":162115,"session":"sierra","subject":"FA2ZF","time_elapsed":975497,"trial_index":20,"trial_type":"html","url":"../views/src/external/stimulus.html"},{"_id":{"$oid":"6180b600732570cf33cf5f5e"},"answer":"F and B, make a vertical line at 12pm and look for the points in the line.","block":"triangular_testing","condition":"113","experiment":"2YP3","graph":"triangular","internal_node_id":"0.0-7.0-0.0","q":16,"rt":46523,"session":"tango","subject":"DK1EM","time_elapsed":540871,"trial_index":20,"trial_type":"html","url":"../views/src/external/stimulus.html"},{"_id":{"$oid":"6180b600732570cf33cf5f76"},"answer":"Looking at the graph, the x-axis gives us the information as to when events start. To determine what even(s) start at 12pm we look at the 12-pm plot on the x-axis and look what points are in line with that point. In this case, shifts B and F start at 12pm.","block":"triangular_testing","condition":"114","experiment":"2YP3","graph":"triangular","internal_node_id":"0.0-7.0-0.0","q":16,"rt":79949,"session":"sierra","subject":"4LZ8B","time_elapsed":721522,"trial_index":20,"trial_type":"html","url":"../views/src/external/stimulus.html"},{"_id":{"$oid":"6180b600732570cf33cf5f8e"},"answer":"Events that have a dot that is directly vertical to the 12pm mark.","block":"triangular_testing","condition":"113","experiment":"2YP3","graph":"triangular","internal_node_id":"0.0-7.0-0.0","q":16,"rt":66388,"session":"tango","subject":"8FE87","time_elapsed":804304,"trial_index":20,"trial_type":"html","url":"../views/src/external/stimulus.html"},{"_id":{"$oid":"6180b600732570cf33cf5fa6"},"answer":"to see which letter(s) on the diagram points to 12PM","block":"triangular_testing","condition":"115","experiment":"2YP3","graph":"triangular","internal_node_id":"0.0-7.0-0.0","q":16,"rt":85662,"session":"uniform","subject":"LW2XG","time_elapsed":610607,"trial_index":20,"trial_type":"html","url":"../views/src/external/stimulus.html"},{"_id":{"$oid":"6180b600732570cf33cf5fbe"},"answer":"all points that lay on the vertical x-intercept at 12pm","block":"triangular_testing","condition":"115","experiment":"2YP3","graph":"triangular","internal_node_id":"0.0-7.0-0.0","q":16,"rt":67646,"session":"romeo","subject":"7H6QC","time_elapsed":819413,"trial_index":20,"trial_type":"html","url":"../views/src/external/stimulus.html"},{"_id":{"$oid":"6180b600732570cf33cf5fd6"},"answer":"I first look down at the bottom x-axis to find the start/end of the shifts. Locate 12pm and go up the triangle to find which shifts start at that time. In this scenario that would be B and F. ","block":"triangular_testing","condition":"114","experiment":"2YP3","graph":"triangular","internal_node_id":"0.0-7.0-0.0","q":16,"rt":57147,"session":"sierra","subject":"9PKA7","time_elapsed":960910,"trial_index":20,"trial_type":"html","url":"../views/src/external/stimulus.html"},{"_id":{"$oid":"6180b600732570cf33cf5fee"},"answer":"Follow the diagonal line up so M and L","block":"triangular_testing","condition":"115","experiment":"2YP3","graph":"triangular","internal_node_id":"0.0-7.0-0.0","q":16,"rt":23550,"session":"uniform","subject":"HPKMO","time_elapsed":618840,"trial_index":20,"trial_type":"html","url":"../views/src/external/stimulus.html"},{"_id":{"$oid":"6180b600732570cf33cf6006"},"answer":"F and B start work at that hour of day because they are scheduled on that hour but they vary in how long they work. we could also tell that J ends work because they only work for two hours which means their shift ends at 12pm. ","block":"triangular_testing","condition":"115","experiment":"2YP3","graph":"triangular","internal_node_id":"0.0-7.0-0.0","q":16,"rt":99583,"session":"uniform","subject":"03QKB","time_elapsed":1180452,"trial_index":20,"trial_type":"html","url":"../views/src/external/stimulus.html"},{"_id":{"$oid":"6180b600732570cf33cf601e"},"answer":"whatever event(s) is/are directly above 12 pm start(s) at 12 pm","block":"triangular_testing","condition":"113","experiment":"2YP3","graph":"triangular","internal_node_id":"0.0-7.0-0.0","q":16,"rt":37754,"session":"tango","subject":"CSU5Z","time_elapsed":843452,"trial_index":20,"trial_type":"html","url":"../views/src/external/stimulus.html"},{"_id":{"$oid":"6180b600732570cf33cf6036"},"answer":"In one case, I could ignore the given lines and base it off of imaginary lines I made that follow the marks on the X-axis vertically. In another case, I could follow the lines of the graph which leads to that specific event. (In this case, M). I had trouble in the process interpreting the graph and have done both ways....","block":"triangular_testing","condition":"113","experiment":"2YP3","graph":"triangular","internal_node_id":"0.0-7.0-0.0","q":16,"rt":85637,"session":"tango","subject":"SQ6AK","time_elapsed":1181855,"trial_index":20,"trial_type":"html","url":"../views/src/external/stimulus.html"},{"_id":{"$oid":"6180b600732570cf33cf6066"},"answer":"Look for the points directly above 12PM on the x-axis","block":"triangular_testing","condition":"115","experiment":"2YP3","graph":"triangular","internal_node_id":"0.0-7.0-0.0","q":16,"rt":37434,"session":"uniform","subject":"XQ4O8","time_elapsed":669142,"trial_index":20,"trial_type":"html","url":"../views/src/external/stimulus.html"},{"_id":{"$oid":"6180b600732570cf33cf607e"},"answer":"spot the 12pm mark on the horizontal axis, trace the line that begins from 12pm mark in the triangle that is oriented towards the right, any letter dots that falls along this particular line start at 12pm. ","block":"triangular_testing","condition":"113","experiment":"2YP3","graph":"triangular","internal_node_id":"0.0-7.0-0.0","q":16,"rt":154242,"session":"tango","subject":"0CR6Z","time_elapsed":858929,"trial_index":20,"trial_type":"html","url":"../views/src/external/stimulus.html"},{"_id":{"$oid":"6180b600732570cf33cf6096"},"answer":"determine where 12pm is on the chart, and travel up on a vertical line. every dot that is on that vertical line represents an event that starts at 12pm.","block":"triangular_testing","condition":"114","experiment":"2YP3","graph":"triangular","internal_node_id":"0.0-7.0-0.0","q":16,"rt":91811,"session":"victor","subject":"DZD6F","time_elapsed":809254,"trial_index":20,"trial_type":"html","url":"../views/src/external/stimulus.html"},{"_id":{"$oid":"6180b600732570cf33cf60ae"},"answer":"On the x axis of the graph, look where 12 pm is. Go straight up from 12 pm and the shifts that are there start at 12 pm","block":"triangular_testing","condition":"115","experiment":"2YP3","graph":"triangular","internal_node_id":"0.0-7.0-0.0","q":16,"rt":55731,"session":"whiskey","subject":"ZAOCZ","time_elapsed":524748,"trial_index":20,"trial_type":"html","url":"../views/src/external/stimulus.html"},{"_id":{"$oid":"6180b600732570cf33cf60c6"},"answer":"Look at the bottom axis of the graph that says START & END TIME. Find 12PM and look directly above it to see if any events land within that area. For this graph, events B and F start at 12PM.","block":"triangular_testing","condition":"113","experiment":"2YP3","graph":"triangular","internal_node_id":"0.0-7.0-0.0","q":16,"rt":59415,"session":"tango","subject":"X2QZK","time_elapsed":944369,"trial_index":20,"trial_type":"html","url":"../views/src/external/stimulus.html"},{"_id":{"$oid":"6180b600732570cf33cf60de"},"answer":"I go to the 12PM on the x-axis and then see if there are any dots on the y-axis centered at 12PM.","block":"triangular_testing","condition":"115","experiment":"2YP3","graph":"triangular","internal_node_id":"0.0-7.0-0.0","q":16,"rt":48966,"session":"whiskey","subject":"2OEC4","time_elapsed":646769,"trial_index":20,"trial_type":"html","url":"../views/src/external/stimulus.html"},{"_id":{"$oid":"6180b600732570cf33cf60f6"},"answer":"Look at the 12 pm spot on the bottom axis and follow the diagonal line that's sloped to the right. Whichever nodes are on that line start at 12 pm.","block":"triangular_testing","condition":"115","experiment":"2YP3","graph":"triangular","internal_node_id":"0.0-7.0-0.0","q":16,"rt":68197,"session":"whiskey","subject":"1Z2H9","time_elapsed":674677,"trial_index":20,"trial_type":"html","url":"../views/src/external/stimulus.html"},{"_id":{"$oid":"6180b600732570cf33cf610e"},"answer":"Look at the x axis and see what points line up with 12 PM. (vertically)","block":"triangular_testing","condition":"115","experiment":"2YP3","graph":"triangular","internal_node_id":"0.0-7.0-0.0","q":16,"rt":47065,"session":"whiskey","subject":"QGUGU","time_elapsed":741024,"trial_index":20,"trial_type":"html","url":"../views/src/external/stimulus.html"},{"_id":{"$oid":"6180b600732570cf33cf6126"},"answer":"Shifts that start at 12 pm are on the diaganol line that goes up and to the right of the 12pm mark. In this case M and L.\n\nBreaks that start at 12 pm are directly above the 12 pm mark.","block":"triangular_testing","condition":"311","experiment":"2YP3","graph":"triangular","internal_node_id":"0.0-7.0-0.0","q":16,"rt":61767,"session":"xray","subject":"7BW1K","time_elapsed":560723,"trial_index":20,"trial_type":"html","url":"../views/src/external/stimulus.html"},{"_id":{"$oid":"6180b600732570cf33cf613e"},"answer":"you look at the how many points are aligned with 12pm vertically","block":"triangular_testing","condition":"114","experiment":"2YP3","graph":"triangular","internal_node_id":"0.0-7.0-0.0","q":16,"rt":59996,"session":"victor","subject":"A9C1X","time_elapsed":1001075,"trial_index":20,"trial_type":"html","url":"../views/src/external/stimulus.html"},{"_id":{"$oid":"6180b600732570cf33cf6156"},"answer":"You find the time 12pm on the x axis of the graph and follow the line up to the left to see what ends and up to the right to see what is beginning","block":"triangular_testing","condition":"114","experiment":"2YP3","graph":"triangular","internal_node_id":"0.0-7.0-0.0","q":16,"rt":59844,"session":"victor","subject":"LBHUP","time_elapsed":849789,"trial_index":20,"trial_type":"html","url":"../views/src/external/stimulus.html"},{"_id":{"$oid":"6180b600732570cf33cf616e"},"answer":"I looked at the graph on the x-axis at the 12 pm mark and followed with my eye upwards all the points that fall along my imaginary eye line. \n","block":"triangular_testing","condition":"115","experiment":"2YP3","graph":"triangular","internal_node_id":"0.0-7.0-0.0","q":16,"rt":58305,"session":"whiskey","subject":"MWJFN","time_elapsed":855926,"trial_index":20,"trial_type":"html","url":"../views/src/external/stimulus.html"},{"_id":{"$oid":"6180b600732570cf33cf6186"},"answer":"To determine which event starts at 12pm. You look at the bottom of the chart with the labels of time. You find 12pm and anything that lays between the line upwards means that an event starts at 12pm.","block":"triangular_testing","condition":"115","experiment":"2YP3","graph":"triangular","internal_node_id":"0.0-7.0-0.0","q":16,"rt":75162,"session":"whiskey","subject":"9BS72","time_elapsed":667006,"trial_index":20,"trial_type":"html","url":"../views/src/external/stimulus.html"},{"_id":{"$oid":"6180b600732570cf33cf619e"},"answer":"You look at 12PM at the bottom, and then follow the horizontal line going to the right.","block":"triangular_testing","condition":"311","experiment":"2YP3","graph":"triangular","internal_node_id":"0.0-7.0-0.0","q":16,"rt":21301,"session":"xray","subject":"202VN","time_elapsed":545591,"trial_index":20,"trial_type":"html","url":"../views/src/external/stimulus.html"},{"_id":{"$oid":"6180b600732570cf33cf61b6"},"answer":"Follow the time axis until you hit 12pm, then follow the diagonal line going forward. On that diagonal line are the events that will start at 12pm.","block":"triangular_testing","condition":"311","experiment":"2YP3","graph":"triangular","internal_node_id":"0.0-7.0-0.0","q":16,"rt":68276,"session":"xray","subject":"HW2SN","time_elapsed":537266,"trial_index":20,"trial_type":"html","url":"../views/src/external/stimulus.html"},{"_id":{"$oid":"6180b600732570cf33cf61ce"},"answer":"Look at the line that's diagonal to 12 PM. You have to look at the right line because that indicates when the events start.","block":"triangular_testing","condition":"311","experiment":"2YP3","graph":"triangular","internal_node_id":"0.0-7.0-0.0","q":16,"rt":34072,"session":"xray","subject":"1HR1L","time_elapsed":484609,"trial_index":20,"trial_type":"html","url":"../views/src/external/stimulus.html"},{"_id":{"$oid":"6180b600732570cf33cf61e6"},"answer":"FIND 12PM ON THE HORIZONTAL AXIS OF GRAPH AND FOLLOW DOTTED LINE UP-RIGHT. ALL OBJECTS THAT LIE ON THE DOTTED LINE START AT 12PM","block":"triangular_testing","condition":"311","experiment":"2YP3","graph":"triangular","internal_node_id":"0.0-7.0-0.0","q":16,"rt":56649,"session":"xray","subject":"DJRH1","time_elapsed":463818,"trial_index":20,"trial_type":"html","url":"../views/src/external/stimulus.html"},{"_id":{"$oid":"6180b600732570cf33cf61fe"},"answer":"Shifts ending follow the diagonal left line, shifts starting follow the diagonal right line, coffee breaks are straight up from 12pm","block":"triangular_testing","condition":"311","experiment":"2YP3","graph":"triangular","internal_node_id":"0.0-7.0-0.0","q":16,"rt":60165,"session":"xray","subject":"JPN18","time_elapsed":544707,"trial_index":20,"trial_type":"html","url":"../views/src/external/stimulus.html"},{"_id":{"$oid":"6180b600732570cf33cf6216"},"answer":"If the dot is on the 12pm line then the event starts at 12. ","block":"triangular_testing","condition":"115","experiment":"2YP3","graph":"triangular","internal_node_id":"0.0-7.0-0.0","q":16,"rt":169736,"session":"uniform","subject":"PWFDZ","time_elapsed":1270076,"trial_index":20,"trial_type":"html","url":"../views/src/external/stimulus.html"},{"_id":{"$oid":"6180b600732570cf33cf6246"},"answer":"You can determine what events start at 12pm by following the lines on the side of the triangle that connects to the 12pm mark on the x-axis of the graph.","block":"triangular_testing","condition":"311","experiment":"2YP3","graph":"triangular","internal_node_id":"0.0-7.0-0.0","q":16,"rt":60110,"session":"xray","subject":"AG2V3","time_elapsed":564254,"trial_index":20,"trial_type":"html","url":"../views/src/external/stimulus.html"},{"_id":{"$oid":"6180b600732570cf33cf6276"},"answer":"Look for points that start at 12pm","block":"triangular_testing","condition":"311","experiment":"2YP3","graph":"triangular","internal_node_id":"0.0-7.0-0.0","q":16,"rt":25378,"session":"xray","subject":"41Y1H","time_elapsed":771143,"trial_index":20,"trial_type":"html","url":"../views/src/external/stimulus.html"},{"_id":{"$oid":"6180b600732570cf33cf628e"},"answer":"Look at the x axis where it says start & end time, then for starting, look at 12pm and go diagonally right which will hit the M and L.","block":"triangular_testing","condition":"311","experiment":"2YP3","graph":"triangular","internal_node_id":"0.0-7.0-0.0","q":16,"rt":61719,"session":"xray","subject":"EPA4S","time_elapsed":650025,"trial_index":20,"trial_type":"html","url":"../views/src/external/stimulus.html"},{"_id":{"$oid":"6180b600732570cf33cf62a6"},"answer":"the dots on the diagonal line to the right ","block":"triangular_testing","condition":"311","experiment":"2YP3","graph":"triangular","internal_node_id":"0.0-7.0-0.0","q":16,"rt":34803,"session":"xray","subject":"EER58","time_elapsed":615356,"trial_index":20,"trial_type":"html","url":"../views/src/external/stimulus.html"},{"_id":{"$oid":"6180b600732570cf33cf62be"},"answer":"Find 12pm on the x-axis and trace the line that is going upwards in the positive direction of the graph (so towards the right and up) from the 12pm tick mark. The dots found on this line are the shifts that start at 12pm.","block":"triangular_testing","condition":"311","experiment":"2YP3","graph":"triangular","internal_node_id":"0.0-7.0-0.0","q":16,"rt":127546,"session":"xray","subject":"X9225","time_elapsed":874499,"trial_index":20,"trial_type":"html","url":"../views/src/external/stimulus.html"},{"_id":{"$oid":"6180b600732570cf33cf62d6"},"answer":"FOLLOW LINE\n","block":"triangular_testing","condition":"311","experiment":"2YP3","graph":"triangular","internal_node_id":"0.0-7.0-0.0","q":16,"rt":9220,"session":"yankee","subject":"9TE89","time_elapsed":771841,"trial_index":20,"trial_type":"html","url":"../views/src/external/stimulus.html"},{"_id":{"$oid":"6180b600732570cf33cf62ee"},"answer":"I find 12p on the bottom of the chart and follow the right slanted line. The shifts on this line begin at 12p.","block":"triangular_testing","condition":"311","experiment":"2YP3","graph":"triangular","internal_node_id":"0.0-7.0-0.0","q":16,"rt":133999,"session":"xray","subject":"F9531","time_elapsed":845510,"trial_index":20,"trial_type":"html","url":"../views/src/external/stimulus.html"},{"_id":{"$oid":"6180b600732570cf33cf6306"},"answer":"Let's say that the halfway mark of a shift is the top point of a triangle, then the starting point of a shift is the bottom left point, and the ending point is the bottom right point. Based on that structure, if a triangle had a bottom left point beginning at the 12PM mark, then the shift would start at the 12PM mark. (i.e. Shift M's left bottom point starts at 12PM, therefore Shift M starts at 12PM)","block":"triangular_testing","condition":"311","experiment":"2YP3","graph":"triangular","internal_node_id":"0.0-7.0-0.0","q":16,"rt":233339,"session":"xray","subject":"5KWEX","time_elapsed":1324058,"trial_index":20,"trial_type":"html","url":"../views/src/external/stimulus.html"},{"_id":{"$oid":"6180b600732570cf33cf631e"},"answer":"You first see which one on the x axis says start time at 12 pm.  ","block":"triangular_testing","condition":"311","experiment":"2YP3","graph":"triangular","internal_node_id":"0.0-7.0-0.0","q":16,"rt":84610,"session":"yankee","subject":"ZEPVG","time_elapsed":527356,"trial_index":20,"trial_type":"html","url":"../views/src/external/stimulus.html"},{"_id":{"$oid":"6180b600732570cf33cf6336"},"answer":"Start at 12pm and follow the line to the right upward. Anything that aligns starts at 12pm","block":"triangular_testing","condition":"311","experiment":"2YP3","graph":"triangular","internal_node_id":"0.0-7.0-0.0","q":16,"rt":36020,"session":"yankee","subject":"MCVE6","time_elapsed":561422,"trial_index":20,"trial_type":"html","url":"../views/src/external/stimulus.html"},{"_id":{"$oid":"6180b600732570cf33cf634e"},"answer":"Find 12 pm on the horizontal axis and follow the diagonal line that slopes upward. Any point along this line begins at 12","block":"triangular_testing","condition":"311","experiment":"2YP3","graph":"triangular","internal_node_id":"0.0-7.0-0.0","q":16,"rt":56960,"session":"yankee","subject":"8EQOW","time_elapsed":1017401,"trial_index":20,"trial_type":"html","url":"../views/src/external/stimulus.html"},{"_id":{"$oid":"6180b600732570cf33cf6366"},"answer":"Find 12 pm  on the x axis and trace up the right diagonal","block":"triangular_testing","condition":"311","experiment":"2YP3","graph":"triangular","internal_node_id":"0.0-7.0-0.0","q":16,"rt":29516,"session":"yankee","subject":"BK993","time_elapsed":416846,"trial_index":20,"trial_type":"html","url":"../views/src/external/stimulus.html"},{"_id":{"$oid":"6180b600732570cf33cf637e"},"answer":"Follow the diagonal line from 12pm","block":"triangular_testing","condition":"311","experiment":"2YP3","graph":"triangular","internal_node_id":"0.0-7.0-0.0","q":16,"rt":33357,"session":"xray","subject":"CE3B9","time_elapsed":1070382,"trial_index":20,"trial_type":"html","url":"../views/src/external/stimulus.html"},{"_id":{"$oid":"6180b600732570cf33cf6396"},"answer":"DIAGONAL LINE GOING DOWN (TO THE LEFT) TO 12PM","block":"triangular_testing","condition":"311","experiment":"2YP3","graph":"triangular","internal_node_id":"0.0-7.0-0.0","q":16,"rt":36507,"session":"xray","subject":"FBPNS","time_elapsed":790879,"trial_index":20,"trial_type":"html","url":"../views/src/external/stimulus.html"},{"_id":{"$oid":"6180b600732570cf33cf63ae"},"answer":"By looking at the x-axis where 12pm is labeled then going upward to see what points are plotted","block":"triangular_testing","condition":"311","experiment":"2YP3","graph":"triangular","internal_node_id":"0.0-7.0-0.0","q":16,"rt":33049,"session":"yankee","subject":"S6D2F","time_elapsed":766475,"trial_index":20,"trial_type":"html","url":"../views/src/external/stimulus.html"},{"_id":{"$oid":"6180b600732570cf33cf63c6"},"answer":"EVENT F AND B HAPPEN AT 12PM AND THIS CAN BE DETERMINED BY NOTING WHAT POINTS FOLLOW WITHIN A HYPOTHETICAL VERTICAL LINE DRAWN THROUGH THE Y AXIS FROM THE 12PM POINT ON THE X AXIS","block":"triangular_testing","condition":"311","experiment":"2YP3","graph":"triangular","internal_node_id":"0.0-7.0-0.0","q":16,"rt":82385,"session":"yankee","subject":"13RHM","time_elapsed":1000024,"trial_index":20,"trial_type":"html","url":"../views/src/external/stimulus.html"},{"_id":{"$oid":"6180b600732570cf33cf63de"},"answer":"First you find 12pm along the axis representing times of day, the x axis. There are two lines that intersect at that point. The right one represents start time while the left shows end time. So to find what starts at 12pm, follow the right line. All events on that line start at 12pm.","block":"triangular_testing","condition":"311","experiment":"2YP3","graph":"triangular","internal_node_id":"0.0-7.0-0.0","q":16,"rt":106656,"session":"yankee","subject":"6GNVQ","time_elapsed":765547,"trial_index":20,"trial_type":"html","url":"../views/src/external/stimulus.html"},{"_id":{"$oid":"6180b600732570cf33cf63f6"},"answer":"Find 2 pm on the x-axis. Then from there follow the diagonal line that goes upright from that point. Any point that falls on that line starts at 12pm","block":"triangular_testing","condition":"311","experiment":"2YP3","graph":"triangular","internal_node_id":"0.0-7.0-0.0","q":16,"rt":65281,"session":"yankee","subject":"TZYD4","time_elapsed":785843,"trial_index":20,"trial_type":"html","url":"../views/src/external/stimulus.html"},{"_id":{"$oid":"6180b600732570cf33cf640e"},"answer":"On the x-axis, find 12. Then find the horizontal line going upwards to the left (like a positive slope) connected to 12 on the x-axis. All points on this line start at 12.","block":"triangular_testing","condition":"311","experiment":"2YP3","graph":"triangular","internal_node_id":"0.0-7.0-0.0","q":16,"rt":95341,"session":"yankee","subject":"1N65C","time_elapsed":699308,"trial_index":20,"trial_type":"html","url":"../views/src/external/stimulus.html"},{"_id":{"$oid":"6180b600732570cf33cf6426"},"answer":"TO SEE WHO STARTS THEIR SHIFT AT 12 PM, YOU LOOK AT THE 12 PM MARK ON THE X AXIS AND LOOK AT WHICH LETTERS LIE ON ITS RIGHT DIAGONAL LINE. TO SEE WHO ENDS THEIR SHIFT AT 12 PM, YOU LOOK AT WHICH LETTERS LIE ON ITS LEFT DIAGONAL LINE.","block":"triangular_testing","condition":"311\n311","experiment":"2YP3","graph":"triangular","internal_node_id":"0.0-7.0-0.0","q":16,"rt":130060,"session":"yankee","subject":"74OF5","time_elapsed":865585,"trial_index":20,"trial_type":"html","url":"../views/src/external/stimulus.html"},{"_id":{"$oid":"6180b600732570cf33cf643e"},"answer":"You go to 12 pm on the x-axis then follow the line going upwards and to the right. The points on that line start at 12 pm.","block":"triangular_testing","condition":"311","experiment":"2YP3","graph":"triangular","internal_node_id":"0.0-7.0-0.0","q":16,"rt":44365,"session":"yankee","subject":"G27Q3","time_elapsed":218745,"trial_index":20,"trial_type":"html","url":"../views/src/external/stimulus.html"},{"_id":{"$oid":"6180b600732570cf33cf646e"},"answer":"The diagonal line that goes through M and L indicate that those two shifts start at 12pm.","block":"triangular_testing","condition":"311","experiment":"2YP3","graph":"triangular","internal_node_id":"0.0-7.0-0.0","q":16,"rt":72985,"session":"yankee","subject":"CKDM5","time_elapsed":1005428,"trial_index":20,"trial_type":"html","url":"../views/src/external/stimulus.html"},{"_id":{"$oid":"6180b600732570cf33cf6486"},"answer":"You look at the bottom axis and look for 12pm. Once you've determined that point you follow it up along the right hand side line and which ever point you encounter along that line is what events start at 12pm. ","block":"triangular_testing","condition":"211","experiment":"2YP3","graph":"triangular","internal_node_id":"0.0-7.0-0.0","q":16,"rt":51019,"session":"zulu","subject":"06217","time_elapsed":866875,"trial_index":20,"trial_type":"html","url":"../views/src/external/stimulus.html"},{"_id":{"$oid":"6180b600732570cf33cf649e"},"answer":"Find 12pm on the x-axis. The point has two diagonals that stem from it. Look at the diagonal stemming from 12pm that points to the right. As you move up the diagonal, any points on that line has a start time of 12pm.","block":"triangular_testing","condition":"311","experiment":"2YP3","graph":"triangular","internal_node_id":"0.0-7.0-0.0","q":16,"rt":83964,"session":"yankee","subject":"JYGX2","time_elapsed":728749,"trial_index":20,"trial_type":"html","url":"../views/src/external/stimulus.html"},{"_id":{"$oid":"6180b600732570cf33cf64b6"},"answer":"By looking at the diagnol, M and L starts and by looking vertically F and B starts coffee breaks","block":"triangular_testing","condition":"211","experiment":"2YP3","graph":"triangular","internal_node_id":"0.0-7.0-0.0","q":16,"rt":53617,"session":"zulu","subject":"MUULG","time_elapsed":722907,"trial_index":20,"trial_type":"html","url":"../views/src/external/stimulus.html"},{"_id":{"$oid":"6180b600732570cf33cf64ce"},"answer":"You can determine which shifts occur at 12 by seeing which points on the line coming out of 12 towards the right. Breaks that occur at 12pm are points on the horizontal line above 12pm.","block":"triangular_testing","condition":"211","experiment":"2YP3","graph":"triangular","internal_node_id":"0.0-7.0-0.0","q":16,"rt":82645,"session":"zulu","subject":"K0CNH","time_elapsed":947765,"trial_index":20,"trial_type":"html","url":"../views/src/external/stimulus.html"},{"_id":{"$oid":"6180b600732570cf33cf64e6"},"answer":"In this triangular graph, the left bottom side is the start of a shift, whose pinnacle is the label of the shift. So we look for 12pm on the x axis and follow the positive gradient until a label is reached","block":"triangular_testing","condition":"211","experiment":"2YP3","graph":"triangular","internal_node_id":"0.0-7.0-0.0","q":16,"rt":102789,"session":"zulu","subject":"VHSFM","time_elapsed":929977,"trial_index":20,"trial_type":"html","url":"../views/src/external/stimulus.html"},{"_id":{"$oid":"6180b600732570cf33cf64fe"},"answer":"You look at the x-axis and find the point that says 12 pm and then see which events lie above the 12 pm mark.","block":"triangular_testing","condition":"211","experiment":"2YP3","graph":"triangular","internal_node_id":"0.0-7.0-0.0","q":16,"rt":31163,"session":"zulu","subject":"QCQYM","time_elapsed":871594,"trial_index":20,"trial_type":"html","url":"../views/src/external/stimulus.html"},{"_id":{"$oid":"6180b600732570cf33cf6516"},"answer":"Go up the diagonal line to the right until you find a letter.","block":"triangular_testing","condition":"211","experiment":"2YP3","graph":"triangular","internal_node_id":"0.0-7.0-0.0","q":16,"rt":39649,"session":"zulu","subject":"8182H","time_elapsed":472707,"trial_index":20,"trial_type":"html","url":"../views/src/external/stimulus.html"},{"_id":{"$oid":"6180b600732570cf33cf652e"},"answer":"Shift B and F","block":"triangular_testing","condition":"211","experiment":"2YP3","graph":"triangular","internal_node_id":"0.0-7.0-0.0","q":16,"rt":34414,"session":"zulu","subject":"TCTCN","time_elapsed":707559,"trial_index":20,"trial_type":"html","url":"../views/src/external/stimulus.html"},{"_id":{"$oid":"6180b600732570cf33cf6546"},"answer":"Shifts B and F are in their coffee break, and shifts M and L are just starting. ","block":"triangular_testing","condition":"211","experiment":"2YP3","graph":"triangular","internal_node_id":"0.0-7.0-0.0","q":16,"rt":60775,"session":"zulu","subject":"CWE2H","time_elapsed":1026818,"trial_index":20,"trial_type":"html","url":"../views/src/external/stimulus.html"},{"_id":{"$oid":"6180b600732570cf33cf655e"},"answer":"Trace the diagonal line the starts at 12 pm and scales up the right of the screen. Whatever points fall on that line are the shifts that start at 12pm.","block":"triangular_testing","condition":"211","experiment":"2YP3","graph":"triangular","internal_node_id":"0.0-7.0-0.0","q":16,"rt":86578,"session":"zulu","subject":"TTCWS","time_elapsed":697994,"trial_index":20,"trial_type":"html","url":"../views/src/external/stimulus.html"},{"_id":{"$oid":"6180b600732570cf33cf6576"},"answer":"Follow the x axis, then look at the diagonal to determine the duration.","block":"triangular_testing","condition":"211","experiment":"2YP3","graph":"triangular","internal_node_id":"0.0-7.0-0.0","q":16,"rt":47558,"session":"zulu","subject":"VVH1B","time_elapsed":1262552,"trial_index":20,"trial_type":"html","url":"../views/src/external/stimulus.html"},{"_id":{"$oid":"6180b600732570cf33cf658e"},"answer":"look for dots aligned with the dash on the x-axis corresponding to the 12 PM ","block":"triangular_testing","condition":"211","experiment":"2YP3","graph":"triangular","internal_node_id":"0.0-7.0-0.0","q":16,"rt":84684,"session":"zulu","subject":"Z5GWP","time_elapsed":1142035,"trial_index":20,"trial_type":"html","url":"../views/src/external/stimulus.html"},{"_id":{"$oid":"6180b600732570cf33cf65a6"},"answer":"LOOK AT THE START AND END TIME AXIS\n","block":"triangular_testing","condition":"211","experiment":"2YP3","graph":"triangular","internal_node_id":"0.0-7.0-0.0","q":16,"rt":16782,"session":"zulu","subject":"GD39M","time_elapsed":1192723,"trial_index":20,"trial_type":"html","url":"../views/src/external/stimulus.html"},{"_id":{"$oid":"6180b600732570cf33cf65be"},"answer":"To find out which shifts start at 12 pm you look at the x axis at the point that corresponds to 12pm then follow the diagonal line up and to the right. In this case it would be M and L. Conversely, to see which shifts end at 12 you would go diagonally up and to the left. In this case there are none. To see which shift have a break at 12 you just go vertically up from 12 pm. In this case B and F.","block":"triangular_testing","condition":"211","experiment":"2YP3","graph":"triangular","internal_node_id":"0.0-7.0-0.0","q":16,"rt":266563,"session":"zulu","subject":"AV66J","time_elapsed":1207898,"trial_index":20,"trial_type":"html","url":"../views/src/external/stimulus.html"},{"_id":{"$oid":"6180b600732570cf33cf65d6"},"answer":"The line left of the point is when it starts\n","block":"triangular_testing","condition":"211","experiment":"2YP3","graph":"triangular","internal_node_id":"0.0-7.0-0.0","q":16,"rt":32092,"session":"zulu","subject":"MKTF4","time_elapsed":1185018,"trial_index":20,"trial_type":"html","url":"../views/src/external/stimulus.html"},{"_id":{"$oid":"6180b600732570cf33cf65ee"},"answer":"follow the diagonal line that corresponds with the start time. For 12 pm the starting shifts (displayed to the right of the line) are M and  L. ","block":"triangular_testing","condition":"211","experiment":"2YP3","graph":"triangular","internal_node_id":"0.0-7.0-0.0","q":16,"rt":115440,"session":"zulu","subject":"BHZYG","time_elapsed":1154652,"trial_index":20,"trial_type":"html","url":"../views/src/external/stimulus.html"},{"_id":{"$oid":"6180b600732570cf33cf4b15"},"answer":"A","axis":"partial","condition":"112","correct":0,"explicit":1,"impasse":1,"orth_correct":1,"q":1,"question":"starttime","rt":14701,"session":"bravo","subject":"KGNTA"},{"_id":{"$oid":"6180b600732570cf33cf4b16"},"answer":"E","axis":"partial","condition":"112","correct":0,"explicit":1,"impasse":1,"orth_correct":1,"q":2,"question":"starts","rt":12358,"session":"bravo","subject":"KGNTA"},{"_id":{"$oid":"6180b600732570cf33cf4b17"},"answer":"Z","axis":"partial","condition":"112","correct":0,"explicit":1,"impasse":1,"orth_correct":1,"q":3,"question":"meets","rt":11473,"session":"bravo","subject":"KGNTA"},{"_id":{"$oid":"6180b600732570cf33cf4b18"},"answer":"U","axis":"partial","condition":"112","correct":0,"explicit":1,"impasse":1,"orth_correct":1,"q":4,"question":"endtime","rt":26421,"session":"bravo","subject":"KGNTA"},{"_id":{"$oid":"6180b600732570cf33cf4b19"},"answer":"F","axis":"partial","condition":"112","correct":0,"explicit":1,"impasse":1,"orth_correct":0,"q":5,"question":"midpoint","rt":53386,"session":"bravo","subject":"KGNTA"},{"_id":{"$oid":"6180b600732570cf33cf4b1a"},"answer":"EG","axis":"partial","condition":"112","correct":1,"explicit":1,"impasse":1,"orth_correct":1,"q":6,"question":"duration","rt":9535,"session":"bravo","subject":"KGNTA"},{"_id":{"$oid":"6180b600732570cf33cf4b1b"},"answer":"FB","axis":"partial","condition":"112","correct":0,"explicit":1,"impasse":1,"orth_correct":1,"q":7,"question":"duration+starts","rt":13439,"session":"bravo","subject":"KGNTA"},{"_id":{"$oid":"6180b600732570cf33cf4b1c"},"answer":"E","axis":"partial","condition":"112","correct":0,"explicit":1,"impasse":1,"orth_correct":1,"q":8,"question":"duration+contained","rt":16087,"session":"bravo","subject":"KGNTA"},{"_id":{"$oid":"6180b600732570cf33cf4b1d"},"answer":"I","axis":"partial","condition":"112","correct":1,"explicit":1,"impasse":1,"orth_correct":1,"q":9,"question":"starttime+before+endtime+during","rt":19177,"session":"bravo","subject":"KGNTA"},{"_id":{"$oid":"6180b600732570cf33cf4b1e"},"answer":"X","axis":"partial","condition":"112","correct":0,"explicit":1,"impasse":1,"orth_correct":1,"q":10,"question":"ends","rt":31042,"session":"bravo","subject":"KGNTA"},{"_id":{"$oid":"6180b600732570cf33cf4b1f"},"answer":"FB","axis":"partial","condition":"112","correct":0,"explicit":1,"impasse":1,"orth_correct":1,"q":11,"question":"starttime","rt":10003,"session":"bravo","subject":"KGNTA"},{"_id":{"$oid":"6180b600732570cf33cf4b20"},"answer":"B","axis":"partial","condition":"112","correct":0,"explicit":1,"impasse":1,"orth_correct":1,"q":12,"question":"starts","rt":10702,"session":"bravo","subject":"KGNTA"},{"_id":{"$oid":"6180b600732570cf33cf4b21"},"answer":"FX","axis":"partial","condition":"112","correct":0,"explicit":1,"impasse":1,"orth_correct":1,"q":13,"question":"meets","rt":12918,"session":"bravo","subject":"KGNTA"},{"_id":{"$oid":"6180b600732570cf33cf4b22"},"answer":"B","axis":"partial","condition":"112","correct":0,"explicit":1,"impasse":1,"orth_correct":1,"q":14,"question":"endtime","rt":12039,"session":"bravo","subject":"KGNTA"},{"_id":{"$oid":"6180b600732570cf33cf4b23"},"answer":"EF","axis":"partial","condition":"112","correct":0,"explicit":1,"impasse":1,"orth_correct":1,"q":15,"question":"midpoint","rt":53994,"session":"bravo","subject":"KGNTA"},{"_id":{"$oid":"6180b600732570cf33cf4b2c"},"answer":"HJKUDEBCAIO","axis":"diagonal","condition":"113","correct":0,"explicit":1,"impasse":1,"orth_correct":0,"q":1,"question":"starttime","rt":36194,"session":"bravo","subject":"YFBWR"},{"_id":{"$oid":"6180b600732570cf33cf4b2d"},"answer":"Z","axis":"diagonal","condition":"113","correct":0,"explicit":1,"impasse":1,"orth_correct":0,"q":2,"question":"starts","rt":11697,"session":"bravo","subject":"YFBWR"},{"_id":{"$oid":"6180b600732570cf33cf4b2e"},"answer":"JD","axis":"diagonal","condition":"113","correct":0,"explicit":1,"impasse":1,"orth_correct":0,"q":3,"question":"meets","rt":16893,"session":"bravo","subject":"YFBWR"},{"_id":{"$oid":"6180b600732570cf33cf4b2f"},"answer":"X","axis":"diagonal","condition":"113","correct":0,"explicit":1,"impasse":1,"orth_correct":0,"q":4,"question":"endtime","rt":9324,"session":"bravo","subject":"YFBWR"},{"_id":{"$oid":"6180b600732570cf33cf4b30"},"answer":"JD","axis":"diagonal","condition":"113","correct":0,"explicit":1,"impasse":1,"orth_correct":0,"q":5,"question":"midpoint","rt":17753,"session":"bravo","subject":"YFBWR"},{"_id":{"$oid":"6180b600732570cf33cf4b31"},"answer":"EG","axis":"diagonal","condition":"113","correct":1,"explicit":1,"impasse":1,"orth_correct":1,"q":6,"question":"duration","rt":29456,"session":"bravo","subject":"YFBWR"},{"_id":{"$oid":"6180b600732570cf33cf4b32"},"answer":"FB","axis":"diagonal","condition":"113","correct":0,"explicit":1,"impasse":1,"orth_correct":1,"q":7,"question":"duration+starts","rt":17508,"session":"bravo","subject":"YFBWR"},{"_id":{"$oid":"6180b600732570cf33cf4b33"},"answer":"M","axis":"diagonal","condition":"113","correct":0,"explicit":1,"impasse":1,"orth_correct":0,"q":8,"question":"duration+contained","rt":24446,"session":"bravo","subject":"YFBWR"},{"_id":{"$oid":"6180b600732570cf33cf4b34"},"answer":"I","axis":"diagonal","condition":"113","correct":1,"explicit":1,"impasse":1,"orth_correct":1,"q":9,"question":"starttime+before+endtime+during","rt":14840,"session":"bravo","subject":"YFBWR"},{"_id":{"$oid":"6180b600732570cf33cf4b35"},"answer":"B","axis":"diagonal","condition":"113","correct":0,"explicit":1,"impasse":1,"orth_correct":0,"q":10,"question":"ends","rt":5534,"session":"bravo","subject":"YFBWR"},{"_id":{"$oid":"6180b600732570cf33cf4b36"},"answer":"FB","axis":"diagonal","condition":"113","correct":0,"explicit":1,"impasse":1,"orth_correct":1,"q":11,"question":"starttime","rt":12391,"session":"bravo","subject":"YFBWR"},{"_id":{"$oid":"6180b600732570cf33cf4b37"},"answer":"B","axis":"diagonal","condition":"113","correct":0,"explicit":1,"impasse":1,"orth_correct":1,"q":12,"question":"starts","rt":14605,"session":"bravo","subject":"YFBWR"},{"_id":{"$oid":"6180b600732570cf33cf4b38"},"answer":"LH","axis":"diagonal","condition":"113","correct":0,"explicit":1,"impasse":1,"orth_correct":0,"q":13,"question":"meets","rt":20309,"session":"bravo","subject":"YFBWR"},{"_id":{"$oid":"6180b600732570cf33cf4b39"},"answer":"X","axis":"diagonal","condition":"113","correct":1,"explicit":1,"impasse":1,"orth_correct":0,"q":14,"question":"endtime","rt":17984,"session":"bravo","subject":"YFBWR"},{"_id":{"$oid":"6180b600732570cf33cf4b3a"},"answer":"JF","axis":"diagonal","condition":"113","correct":0,"explicit":1,"impasse":1,"orth_correct":0,"q":15,"question":"midpoint","rt":18192,"session":"bravo","subject":"YFBWR"},{"_id":{"$oid":"6180b600732570cf33cf4b43"},"answer":"A","axis":"diagonal","condition":"113","correct":0,"explicit":1,"impasse":1,"orth_correct":1,"q":1,"question":"starttime","rt":21302,"session":"bravo","subject":"6DN76"},{"_id":{"$oid":"6180b600732570cf33cf4b44"},"answer":"E","axis":"diagonal","condition":"113","correct":0,"explicit":1,"impasse":1,"orth_correct":1,"q":2,"question":"starts","rt":15282,"session":"bravo","subject":"6DN76"},{"_id":{"$oid":"6180b600732570cf33cf4b45"},"answer":"Z","axis":"diagonal","condition":"113","correct":0,"explicit":1,"impasse":1,"orth_correct":1,"q":3,"question":"meets","rt":41473,"session":"bravo","subject":"6DN76"},{"_id":{"$oid":"6180b600732570cf33cf4b46"},"answer":"HJ","axis":"diagonal","condition":"113","correct":0,"explicit":1,"impasse":1,"orth_correct":0,"q":4,"question":"endtime","rt":14976,"session":"bravo","subject":"6DN76"},{"_id":{"$oid":"6180b600732570cf33cf4b47"},"answer":"O","axis":"diagonal","condition":"113","correct":1,"explicit":1,"impasse":1,"orth_correct":0,"q":5,"question":"midpoint","rt":11570,"session":"bravo","subject":"6DN76"},{"_id":{"$oid":"6180b600732570cf33cf4b48"},"answer":"EG","axis":"diagonal","condition":"113","correct":1,"explicit":1,"impasse":1,"orth_correct":1,"q":6,"question":"duration","rt":17358,"session":"bravo","subject":"6DN76"},{"_id":{"$oid":"6180b600732570cf33cf4b49"},"answer":"FB","axis":"diagonal","condition":"113","correct":0,"explicit":1,"impasse":1,"orth_correct":1,"q":7,"question":"duration+starts","rt":24817,"session":"bravo","subject":"6DN76"},{"_id":{"$oid":"6180b600732570cf33cf4b4a"},"answer":"IE","axis":"diagonal","condition":"113","correct":0,"explicit":1,"impasse":1,"orth_correct":0,"q":8,"question":"duration+contained","rt":36859,"session":"bravo","subject":"6DN76"},{"_id":{"$oid":"6180b600732570cf33cf4b4b"},"answer":"I","axis":"diagonal","condition":"113","correct":1,"explicit":1,"impasse":1,"orth_correct":1,"q":9,"question":"starttime+before+endtime+during","rt":18407,"session":"bravo","subject":"6DN76"},{"_id":{"$oid":"6180b600732570cf33cf4b4c"},"answer":"B","axis":"diagonal","condition":"113","correct":0,"explicit":1,"impasse":1,"orth_correct":0,"q":10,"question":"ends","rt":18405,"session":"bravo","subject":"6DN76"},{"_id":{"$oid":"6180b600732570cf33cf4b4d"},"answer":"FB","axis":"diagonal","condition":"113","correct":0,"explicit":1,"impasse":1,"orth_correct":1,"q":11,"question":"starttime","rt":10307,"session":"bravo","subject":"6DN76"},{"_id":{"$oid":"6180b600732570cf33cf4b4e"},"answer":"B","axis":"diagonal","condition":"113","correct":0,"explicit":1,"impasse":1,"orth_correct":1,"q":12,"question":"starts","rt":5661,"session":"bravo","subject":"6DN76"},{"_id":{"$oid":"6180b600732570cf33cf4b4f"},"answer":"AG","axis":"diagonal","condition":"113","correct":0,"explicit":1,"impasse":1,"orth_correct":0,"q":13,"question":"meets","rt":23770,"session":"bravo","subject":"6DN76"},{"_id":{"$oid":"6180b600732570cf33cf4b50"},"answer":"FB","axis":"diagonal","condition":"113","correct":0,"explicit":1,"impasse":1,"orth_correct":0,"q":14,"question":"endtime","rt":12194,"session":"bravo","subject":"6DN76"},{"_id":{"$oid":"6180b600732570cf33cf4b51"},"answer":"KX","axis":"diagonal","condition":"113","correct":1,"explicit":1,"impasse":1,"orth_correct":0,"q":15,"question":"midpoint","rt":17730,"session":"bravo","subject":"6DN76"},{"_id":{"$oid":"6180b600732570cf33cf4b5a"},"answer":"A","axis":"diagonal","condition":"113","correct":0,"explicit":1,"impasse":1,"orth_correct":1,"q":1,"question":"starttime","rt":16885,"session":"bravo","subject":"73N5W"},{"_id":{"$oid":"6180b600732570cf33cf4b5b"},"answer":"D","axis":"diagonal","condition":"113","correct":0,"explicit":1,"impasse":1,"orth_correct":0,"q":2,"q